time,ax,ay,az,atotal
0.009947776794433594,0.05,0.09,-0.06,0.11
0.013924837112426758,-0.09,0.13,0.05,0.16
0.024222850799560547,-0.08,0.16,0.04,0.18
0.0350499153137207,-0.01,0.09,0.07,0.11
0.04486584663391113,0.06,0.03,0.06,0.09
0.054898738861083984,0.07,0.07,0.03,0.1
0.06566095352172852,-0.02,0.1,-0.03,0.1
0.07527494430541992,-0.2,0.15,0.0,0.25
0.0851287841796875,-0.24,0.14,0.07,0.28
0.09551692008972168,-0.12,0.09,0.01,0.15
0.10568571090698242,0.06,0.08,-0.09,0.13
0.11556577682495117,0.14,0.11,-0.15,0.23
0.12543988227844238,0.1,0.1,-0.12,0.18
0.13555693626403809,0.07,0.08,-0.05,0.11
0.14570999145507812,0.05,0.07,0.02,0.08
0.15468502044677734,0.03,0.09,0.05,0.1
0.16452503204345703,0.03,0.09,0.07,0.11
0.1748809814453125,0.05,0.04,0.14,0.15
0.1852707862854004,0.1,0.03,0.16,0.19
0.19475603103637695,0.15,0.01,0.19,0.24
0.2050619125366211,0.17,0.03,0.16,0.23
0.21613788604736328,0.11,0.08,0.11,0.17
0.22636985778808594,0.11,0.07,0.12,0.17
0.23613595962524414,0.16,0.07,0.1,0.2
0.24606990814208984,0.16,0.07,0.05,0.18
0.2564430236816406,0.12,0.07,0.08,0.16
0.26564788818359375,0.06,0.08,0.07,0.12
0.27535200119018555,0.04,0.11,0.02,0.11
0.28549885749816895,0.06,0.11,-0.03,0.12
0.29570579528808594,0.09,0.09,-0.02,0.12
0.3058919906616211,0.1,0.1,-0.03,0.14
0.3156709671020508,0.02,0.1,-0.01,0.1
0.32639598846435547,0.0,0.1,-0.01,0.1
0.33730483055114746,0.06,0.08,-0.02,0.1
0.3460097312927246,0.1,0.06,-0.02,0.11
0.35640692710876465,0.06,0.07,0.01,0.09
0.36623096466064453,-0.03,0.08,-0.01,0.08
0.3760058879852295,-0.1,0.11,0.01,0.14
0.3860177993774414,-0.04,0.07,0.04,0.09
0.39664292335510254,0.05,0.1,0.0,0.11
0.4059629440307617,0.05,0.09,-0.02,0.1
0.4172358512878418,0.03,0.08,0.01,0.08
0.4272758960723877,0.02,0.08,0.03,0.08
0.43751001358032227,0.0,0.07,0.05,0.08
0.4471879005432129,-0.05,0.11,0.04,0.12
0.457273006439209,-0.1,0.13,0.01,0.16
0.4673290252685547,-0.14,0.11,-0.04,0.18
0.4777250289916992,-0.15,0.13,-0.02,0.19
0.4872608184814453,-0.13,0.11,0.1,0.19
0.4976367950439453,-0.05,0.03,0.14,0.15
0.5076127052307129,0.02,0.08,0.03,0.08
0.5177438259124756,-0.09,0.16,0.02,0.18
0.5277259349822998,-0.17,0.14,0.05,0.22
0.5377688407897949,-0.15,0.13,0.01,0.19
0.5477709770202637,-0.11,0.11,-0.01,0.15
0.5579400062561035,-0.09,0.08,-0.05,0.13
0.5682940483093262,-0.07,0.09,-0.07,0.13
0.5780477523803711,-0.03,0.08,-0.04,0.09
0.5880527496337891,-0.02,0.09,-0.01,0.09
0.598179817199707,0.0,0.1,0.01,0.1
0.6084928512573242,0.01,0.09,-0.01,0.09
0.6184287071228027,-0.01,0.08,-0.04,0.09
0.628389835357666,0.01,0.08,-0.06,0.1
0.6383979320526123,0.06,0.09,-0.05,0.11
0.648749828338623,0.08,0.1,-0.12,0.17
0.6585328578948975,0.09,0.09,-0.16,0.2
0.6686220169067383,0.1,0.11,-0.2,0.24
0.6786558628082275,0.08,0.11,-0.2,0.24
0.6889610290527344,0.12,0.09,-0.14,0.2
0.6988019943237305,0.08,0.1,-0.12,0.17
0.7088727951049805,-0.01,0.1,-0.11,0.14
0.7189908027648926,-0.02,0.12,-0.11,0.16
0.7291688919067383,-0.05,0.13,-0.07,0.15
0.739055871963501,-0.05,0.11,-0.05,0.13
0.7493100166320801,0.0,0.1,-0.07,0.12
0.7590827941894531,-0.02,0.1,0.01,0.1
0.7692780494689941,-0.02,0.08,0.03,0.08
0.7794878482818604,-0.01,0.1,0.03,0.1
0.7893118858337402,-0.03,0.08,0.12,0.14
0.7995829582214355,-0.08,0.07,0.16,0.19
0.8097057342529297,-0.07,0.11,0.07,0.14
0.8199198246002197,0.01,0.09,0.09,0.12
0.829679012298584,0.03,0.03,0.13,0.13
0.8396167755126953,0.03,0.06,0.1,0.12
0.8499307632446289,0.08,0.08,0.04,0.12
0.8602008819580078,0.06,0.1,0.05,0.12
0.8698797225952148,-0.01,0.1,0.09,0.13
0.8798828125,0.01,0.11,0.03,0.11
0.8899388313293457,0.05,0.08,0.0,0.09
0.9002947807312012,0.1,0.09,-0.03,0.13
0.9099838733673096,0.07,0.09,-0.04,0.12
0.9201617240905762,0.03,0.07,-0.02,0.07
0.93023681640625,0.03,0.09,-0.04,0.1
0.9405250549316406,0.11,0.12,-0.1,0.19
0.9504358768463135,0.1,0.12,-0.08,0.17
0.9604778289794922,0.06,0.05,0.02,0.08
0.9704728126525879,0.05,0.02,0.04,0.06
0.9806547164916992,0.0,0.07,0.01,0.07
0.9905378818511963,0.0,0.07,0.04,0.08
1.000546932220459,0.03,0.07,0.05,0.09
1.0111379623413086,0.08,0.1,-0.03,0.13
1.0211708545684814,0.07,0.13,-0.08,0.16
1.0307817459106445,0.04,0.09,-0.03,0.1
1.0408029556274414,0.05,0.07,0.04,0.09
1.0498557090759277,0.03,0.07,0.04,0.08
1.0613558292388916,0.02,0.1,0.03,0.1
1.071485996246338,0.02,0.14,0.0,0.14
1.0813438892364502,0.03,0.11,-0.01,0.11
1.0913379192352295,0.07,0.06,0.03,0.09
1.1015067100524902,0.04,0.08,0.01,0.09
1.1118497848510742,0.01,0.1,-0.03,0.1
1.1213207244873047,-0.06,0.12,0.01,0.13
1.1313488483428955,-0.1,0.12,0.01,0.15
1.1405189037322998,-0.02,0.08,0.03,0.08
1.1509437561035156,0.02,0.09,-0.03,0.09
1.1605808734893799,-0.01,0.12,-0.02,0.12
1.1707730293273926,0.0,0.09,0.05,0.1
1.1808090209960938,0.01,0.06,0.07,0.09
1.1912298202514648,0.06,0.08,0.01,0.1
1.2010488510131836,0.04,0.15,-0.01,0.15
1.2108328342437744,-0.05,0.16,-0.02,0.16
1.2216508388519287,-0.13,0.12,0.02,0.17
1.2310237884521484,-0.12,0.06,0.11,0.17
1.2412710189819336,-0.02,0.03,0.15,0.15
1.2511630058288574,0.07,0.09,0.04,0.12
1.261335849761963,0.11,0.11,0.04,0.16
1.271285057067871,0.05,0.09,0.04,0.11
1.2818150520324707,-0.06,0.08,0.05,0.11
1.2914009094238281,-0.12,0.07,0.1,0.17
1.302947998046875,-0.05,0.08,0.07,0.11
1.3114709854125977,0.01,0.07,0.04,0.08
1.3220558166503906,-0.01,0.06,0.03,0.06
1.3316869735717773,-0.04,0.06,0.03,0.07
1.3418028354644775,-0.08,0.07,0.07,0.12
1.3525588512420654,-0.12,0.04,0.31,0.33
1.3622329235076904,-0.06,-0.04,0.47,0.47
1.3719508647918701,-0.04,-0.06,0.38,0.38
1.3821349143981934,-0.06,0.01,0.28,0.28
1.3921070098876953,0.02,0.08,0.21,0.22
1.402613878250122,0.12,0.03,0.24,0.26
1.4123578071594238,0.13,-0.03,0.24,0.27
1.4224677085876465,0.04,0.01,0.12,0.12
1.432480812072754,-0.01,0.1,0.03,0.1
1.442856788635254,0.05,0.14,-0.08,0.16
1.4525909423828125,0.14,0.12,-0.12,0.22
1.4685208797454834,0.18,0.14,-0.2,0.3
1.4726698398590088,0.15,0.12,-0.19,0.27
1.4826927185058594,0.13,0.12,-0.15,0.23
1.492825984954834,0.07,0.15,-0.16,0.23
1.5029618740081787,0.03,0.17,-0.23,0.28
1.5128998756408691,0.03,0.17,-0.24,0.29
1.5229897499084473,0.06,0.15,-0.21,0.26
1.5333800315856934,0.11,0.11,-0.19,0.24
1.543931007385254,0.11,0.11,-0.15,0.21
1.554029941558838,0.02,0.12,-0.12,0.17
1.5640177726745605,-0.08,0.09,-0.04,0.12
1.5745387077331543,-0.02,0.1,0.01,0.1
1.5841588973999023,0.06,0.09,-0.02,0.1
1.5942039489746094,0.06,0.11,0.0,0.12
1.6042380332946777,0.03,0.13,0.07,0.15
1.6146798133850098,-0.06,0.11,0.07,0.14
1.6244218349456787,-0.11,0.09,0.09,0.16
1.6344127655029297,-0.1,0.07,0.14,0.18
1.6444668769836426,0.01,0.07,0.11,0.13
1.6551659107208252,0.04,0.09,0.05,0.11
1.6647157669067383,-0.02,0.05,0.07,0.08
1.67466402053833,0.02,0.04,0.05,0.06
1.684797763824463,0.1,0.05,0.03,0.11
1.6949357986450195,0.07,0.1,0.02,0.12
1.7048728466033936,-0.04,0.12,0.0,0.12
1.7151248455047607,-0.09,0.11,0.0,0.14
1.7250089645385742,-0.07,0.09,0.02,0.11
1.7350099086761475,-0.02,0.08,0.03,0.08
1.745149850845337,0.01,0.08,0.0,0.08
1.7551097869873047,0.0,0.09,0.0,0.09
1.7652459144592285,-0.03,0.11,0.0,0.11
1.7752480506896973,-0.08,0.13,0.04,0.15
1.7855429649353027,-0.06,0.1,0.04,0.12
1.7954058647155762,0.0,0.07,0.06,0.09
1.8059277534484863,0.04,0.07,0.04,0.09
1.8157868385314941,0.0,0.13,-0.03,0.13
1.8332128524780273,0.05,0.14,-0.23,0.27
1.8368098735809326,0.03,0.09,0.07,0.11
1.8463819026947021,0.01,0.05,0.12,0.13
1.8558969497680664,-0.17,0.06,0.24,0.3
1.86696195602417,-0.38,0.05,0.22,0.44
1.8759427070617676,-0.23,0.04,0.12,0.26
1.88608980178833,-0.03,0.08,0.09,0.12
1.8960847854614258,0.02,0.08,0.08,0.11
1.906587839126587,-0.17,0.13,-0.01,0.21
1.916454792022705,-0.2,0.14,0.05,0.24
1.9263248443603516,-0.03,0.12,0.06,0.13
1.93632173538208,0.11,0.07,-0.01,0.13
1.946380853652954,0.11,0.08,-0.01,0.13
1.9564018249511719,-0.02,0.13,-0.04,0.13
1.9666600227355957,-0.13,0.14,0.02,0.19
1.9764318466186523,-0.06,0.08,0.09,0.13
1.9865078926086426,0.02,0.07,0.07,0.1
1.996985912322998,0.01,0.08,0.01,0.08
2.006760835647583,0.03,0.12,-0.06,0.13
2.0168938636779785,0.09,0.13,-0.07,0.17
2.0268187522888184,0.15,0.09,-0.1,0.2
2.037142753601074,0.13,0.06,-0.12,0.18
2.0470447540283203,0.04,0.06,-0.05,0.08
2.0572128295898438,-0.05,0.07,0.08,0.11
2.0672168731689453,-0.09,0.07,0.11,0.15
2.0775208473205566,-0.01,0.08,0.09,0.12
2.0871620178222656,0.01,0.12,0.04,0.12
2.097136974334717,0.03,0.11,0.0,0.11
2.1071889400482178,0.0,0.1,0.01,0.1
2.1178698539733887,-0.06,0.12,0.01,0.13
2.127344846725464,-0.07,0.12,0.02,0.14
2.1375627517700195,-0.07,0.09,0.05,0.12
2.147556781768799,-0.04,0.08,0.02,0.09
2.1580748558044434,0.05,0.08,0.0,0.09
2.167757034301758,0.1,0.11,-0.01,0.14
2.177698850631714,0.03,0.11,-0.03,0.11
2.1877317428588867,-0.02,0.11,-0.03,0.11
2.197788715362549,-0.02,0.1,0.01,0.1
2.2079010009765625,-0.03,0.1,0.0,0.1
2.2181339263916016,-0.08,0.1,0.03,0.13
2.228085994720459,-0.17,0.09,0.06,0.2
2.2381038665771484,-0.19,0.11,0.09,0.23
2.2486538887023926,-0.1,0.1,0.09,0.16
2.2583088874816895,-0.09,0.05,0.08,0.13
2.268427848815918,-0.15,0.06,0.1,0.19
2.2783737182617188,-0.15,0.08,0.13,0.21
2.288912773132324,-0.13,0.1,0.08,0.18
2.298464775085449,-0.12,0.11,0.04,0.16
2.3078880310058594,-0.1,0.08,0.07,0.14
2.3208117485046387,-0.04,0.04,0.12,0.13
2.3292198181152344,0.05,0.06,0.09,0.11
2.338822841644287,0.07,0.11,0.04,0.13
2.3487730026245117,0.03,0.11,0.03,0.11
2.358759880065918,-0.02,0.08,0.01,0.08
2.369626045227051,-0.06,0.09,0.02,0.1
2.379697799682617,0.01,0.08,0.02,0.08
2.3890490531921387,0.11,0.07,0.0,0.13
2.3991427421569824,0.14,0.11,-0.08,0.19
2.4092698097229004,0.09,0.13,-0.15,0.21
2.419426918029785,0.03,0.09,-0.13,0.16
2.429252862930298,0.01,0.08,-0.07,0.1
2.4392199516296387,0.01,0.14,-0.09,0.16
2.4495177268981934,-0.05,0.18,-0.13,0.22
2.4597349166870117,-0.05,0.14,-0.1,0.17
2.469542980194092,-0.02,0.1,-0.04,0.1
2.4797048568725586,-0.03,0.08,0.04,0.09
2.489956855773926,-0.06,0.07,0.13,0.15
2.500185966491699,-0.07,0.07,0.16,0.18
2.509763717651367,-0.07,0.07,0.15,0.17
2.519804000854492,-0.02,0.04,0.14,0.14
2.5299558639526367,0.03,0.08,0.1,0.13
2.540526866912842,-0.02,0.13,0.05,0.14
2.550534725189209,-0.06,0.14,0.1,0.18
2.560433864593506,0.03,0.11,0.06,0.12
2.5704948902130127,0.09,0.12,-0.02,0.15
2.5807788372039795,0.02,0.12,-0.06,0.13
2.5903048515319824,-0.11,0.07,0.08,0.15
2.600407838821411,-0.09,0.06,0.17,0.2
2.6103909015655518,0.05,0.09,0.1,0.14
2.6205668449401855,0.09,0.08,-0.01,0.12
2.630802869796753,0.09,0.07,-0.11,0.15
2.6405129432678223,0.04,0.09,-0.08,0.12
2.65083384513855,-0.07,0.06,-0.01,0.09
2.660599708557129,-0.05,0.04,0.02,0.06
2.6710867881774902,0.09,0.05,0.01,0.1
2.680752754211426,0.23,0.08,-0.1,0.26
2.6908628940582275,0.21,0.1,-0.12,0.26
2.7009830474853516,0.25,0.09,-0.08,0.27
2.7114739418029785,0.22,0.08,-0.05,0.23
2.7210209369659424,0.12,0.1,-0.05,0.16
2.7310898303985596,0.12,0.09,-0.02,0.15
2.741163730621338,0.18,0.06,0.0,0.18
2.7513198852539062,0.27,0.07,0.0,0.27
2.761229991912842,0.3,0.1,-0.11,0.33
2.7713398933410645,0.2,0.14,-0.1,0.26
2.7812678813934326,0.17,0.14,-0.12,0.25
2.791611909866333,0.32,0.12,-0.29,0.44
2.80350399017334,0.19,0.03,0.13,0.23
2.811619758605957,0.03,0.09,0.0,0.09
2.8220388889312744,0.07,0.03,0.15,0.16
2.8318819999694824,0.1,0.04,0.11,0.15
2.842057704925537,-0.05,0.11,0.0,0.12
2.851841926574707,-0.23,0.13,0.1,0.28
2.8618898391723633,-0.26,0.08,0.18,0.32
2.87208890914917,-0.1,0.07,0.09,0.15
2.920088768005371,0.11,0.09,-0.01,0.14
2.9225239753723145,0.22,0.12,-0.08,0.26
2.9244437217712402,0.18,0.17,-0.14,0.28
2.926723003387451,0.08,0.09,-0.1,0.15
2.9286248683929443,-0.02,0.04,-0.01,0.04
2.9314348697662354,-0.1,0.1,0.05,0.15
2.941844940185547,-0.15,0.15,0.06,0.22
2.9515609741210938,-0.22,0.14,0.03,0.26
2.9624109268188477,-0.18,0.08,0.08,0.21
2.97196102142334,0.11,0.04,0.07,0.13
3.0031518936157227,0.22,0.09,-0.07,0.24
3.0044150352478027,-0.02,0.16,-0.17,0.23
3.0054948329925537,-0.18,0.12,-0.12,0.24
3.0230908393859863,-0.06,0.08,-0.02,0.1
3.0242488384246826,0.21,0.12,-0.03,0.24
3.037519931793213,0.22,0.13,-0.15,0.29
3.042362928390503,0.0,0.1,-0.13,0.16
3.053555965423584,-0.2,0.09,0.05,0.22
3.062943935394287,-0.19,0.14,0.18,0.29
3.0733280181884766,-0.18,0.1,0.17,0.26
3.103860855102539,-0.19,0.07,0.18,0.27
3.105422019958496,-0.08,0.05,0.16,0.18
3.1064767837524414,-0.09,0.1,0.13,0.18
3.124177932739258,-0.13,0.14,0.12,0.22
3.1257429122924805,-0.13,0.11,0.03,0.17
3.1386990547180176,-0.18,0.09,0.01,0.2
3.143350839614868,-0.22,0.04,0.0,0.22
3.154047966003418,-0.2,0.02,0.05,0.2
3.163702964782715,-0.1,0.04,0.12,0.16
3.1739768981933594,-0.03,0.04,0.18,0.18
3.2106568813323975,-0.08,0.02,0.24,0.25
3.212510824203491,-0.15,0.04,0.25,0.29
3.2136449813842773,-0.12,0.08,0.26,0.29
3.2236359119415283,0.03,0.06,0.24,0.24
3.2252519130706787,0.2,0.03,0.2,0.28
3.23856782913208,0.24,0.03,0.22,0.32
3.2435479164123535,0.2,0.02,0.24,0.31
3.254957914352417,0.19,0.08,0.1,0.22
3.2645578384399414,0.23,0.09,0.05,0.25
3.2747750282287598,0.36,-0.02,0.07,0.36
3.3098418712615967,0.56,0.0,0.03,0.56
3.3113749027252197,0.66,0.09,0.05,0.66
3.3125057220458984,0.62,0.08,-0.1,0.63
3.322467803955078,0.48,0.16,-0.34,0.6
3.3238320350646973,0.33,0.18,-0.29,0.47
3.337653875350952,0.3,0.05,-0.16,0.34
3.3444888591766357,0.41,0.02,-0.18,0.44
3.3543899059295654,0.61,0.04,-0.12,0.62
3.364813804626465,0.62,-0.05,0.05,0.62
3.374795913696289,0.47,-0.05,0.12,0.48
3.4063849449157715,0.32,-0.07,0.37,0.49
3.4078750610351562,0.21,-0.05,0.37,0.42
3.4088950157165527,0.1,0.05,0.26,0.28
3.4247279167175293,0.08,0.07,0.33,0.34
3.4264297485351562,0.17,0.01,0.43,0.46
3.437264919281006,0.28,-0.07,0.46,0.54
3.4450109004974365,0.3,-0.09,0.18,0.36
3.454861879348755,0.06,-0.02,-0.06,0.08
3.46537184715271,-0.16,0.13,-0.09,0.22
3.475977897644043,-0.11,0.18,-0.02,0.21
3.5072529315948486,-0.09,0.26,-0.17,0.32
3.5087618827819824,-0.25,0.28,-0.24,0.44
3.5098888874053955,-0.29,0.17,-0.19,0.38
3.5240039825439453,-0.21,0.1,-0.04,0.23
3.525613784790039,-0.16,0.11,0.01,0.19
3.539245843887329,-0.27,0.12,0.11,0.31
3.5457048416137695,-0.35,0.04,0.33,0.48
3.556241035461426,-0.29,0.0,0.36,0.46
3.566072940826416,-0.34,-0.08,0.62,0.71
3.5763440132141113,-0.17,-0.06,0.44,0.47
3.6130237579345703,0.12,0.05,0.16,0.2
3.6144847869873047,0.23,0.13,0.16,0.3
3.6154088973999023,0.15,0.08,0.07,0.18
3.6220569610595703,-0.1,0.03,0.02,0.1
3.625623941421509,-0.33,-0.02,0.01,0.33
3.6384239196777344,-0.57,0.07,-0.05,0.57
3.6459808349609375,-0.58,0.32,-0.32,0.73
3.6565117835998535,-0.4,0.31,-0.25,0.56
3.6665878295898438,-0.15,0.17,0.03,0.22
3.6769747734069824,-0.02,-0.01,0.28,0.28
3.71304988861084,-0.13,-0.05,0.32,0.34
3.714700937271118,-0.35,0.0,0.7,0.78
3.7158737182617188,-0.49,0.01,0.83,0.96
3.7232189178466797,-0.5,0.08,0.67,0.83
3.7265539169311523,-0.15,0.11,0.42,0.45
3.7389650344848633,0.11,0.03,0.21,0.23
3.7465908527374268,0.11,-0.01,0.05,0.12
3.7569708824157715,0.12,0.08,-0.11,0.18
3.767683982849121,0.14,0.16,-0.24,0.32
3.777446746826172,0.11,0.17,-0.31,0.37
3.81072998046875,-0.01,0.16,-0.44,0.46
3.812264919281006,-0.15,0.22,-0.59,0.64
3.8133108615875244,-0.23,0.22,-0.34,0.46
3.822321891784668,-0.38,0.2,-0.25,0.49
3.82686185836792,-0.66,0.22,-0.45,0.82
3.8381710052490234,-0.92,0.22,-0.53,1.08
3.8474860191345215,-0.93,0.19,-0.41,1.03
3.8576788902282715,-0.8,0.2,-0.37,0.9
3.8681318759918213,-0.82,0.24,-0.76,1.14
3.878044843673706,-1.02,0.19,-0.97,1.42
3.910233974456787,-1.14,0.13,-0.23,1.17
3.912031888961792,-0.78,0.0,-0.03,0.78
3.913167953491211,-0.43,-0.1,-0.42,0.6
3.922816753387451,-0.45,0.0,-0.14,0.47
3.9279139041900635,-0.31,-0.01,-0.26,0.4
3.937938928604126,-0.3,-0.02,-0.31,0.43
3.9481239318847656,-0.13,0.23,-0.25,0.36
3.9583468437194824,0.02,0.28,-0.31,0.41
3.9689838886260986,0.28,0.36,-0.12,0.47
3.9786458015441895,0.77,0.33,-0.21,0.86
4.011559963226318,0.59,-0.13,0.32,0.68
4.013427734375,0.11,-0.18,0.52,0.56
4.014538764953613,-0.34,0.11,0.36,0.5
4.022459983825684,-0.52,0.17,0.09,0.55
4.028190851211548,-0.1,0.31,-0.26,0.41
4.039038896560669,0.52,0.33,-0.27,0.67
4.049190998077393,0.56,-0.01,0.46,0.72
4.0595808029174805,0.29,-0.36,0.9,1.01
4.069200038909912,0.09,-0.24,0.36,0.44
4.079247951507568,-0.08,0.08,0.11,0.15
4.112941741943359,-0.23,0.16,-0.29,0.4
4.114492893218994,-0.37,0.11,-0.64,0.74
4.115622043609619,-0.49,0.38,-0.91,1.1
4.122646808624268,-0.31,0.49,-0.68,0.89
4.128728866577148,0.33,0.14,-0.08,0.36
4.139362812042236,0.5,-0.2,0.27,0.6
4.1492719650268555,-0.23,-0.17,0.7,0.75
4.159432888031006,-0.6,0.0,0.45,0.75
4.170105934143066,-0.59,0.02,0.24,0.63
4.179894924163818,-0.36,0.13,-0.06,0.38
4.214416980743408,-0.1,0.16,-0.16,0.24
4.215963840484619,0.19,0.37,-0.63,0.75
4.217126846313477,0.09,0.29,-0.58,0.65
4.222769737243652,-0.36,0.32,-0.6,0.76
4.229283809661865,-0.42,0.28,-0.31,0.59
4.239668846130371,-0.17,0.17,-0.14,0.27
4.24972677230835,-0.2,0.04,-0.19,0.27
4.260213851928711,-0.39,0.12,-0.13,0.42
4.270864009857178,-0.64,0.4,0.13,0.76
4.280515909194946,-0.94,0.09,0.35,1.0
4.31453800201416,-1.13,0.01,0.12,1.13
4.316109895706177,-1.04,0.1,0.33,1.09
4.317267894744873,-0.83,0.08,0.39,0.92
4.322793960571289,-0.62,0.15,0.42,0.76
4.329845905303955,-0.71,0.08,0.51,0.87
4.340367794036865,-0.96,0.01,0.16,0.97
4.350766897201538,-0.85,0.09,-0.06,0.85
4.360599994659424,-0.26,0.02,-0.16,0.3
4.371072769165039,-0.15,-0.02,-0.14,0.2
4.381117820739746,-0.56,0.03,0.23,0.6
4.415029048919678,-0.79,0.08,0.53,0.95
4.416608810424805,-0.94,0.02,0.63,1.13
4.417760848999023,-0.69,-0.1,0.44,0.82
4.4229607582092285,-0.27,0.11,-0.03,0.29
4.430909872055054,-0.07,0.42,-0.52,0.67
4.440860748291016,0.0,0.28,-0.4,0.48
4.45088005065918,-0.26,0.21,0.08,0.34
4.461479902267456,-0.94,0.53,0.27,1.11
4.471516847610474,-1.24,1.18,0.46,1.77
4.481691837310791,-1.18,1.24,0.75,1.86
4.515269756317139,-1.01,1.15,0.63,1.65
4.516862869262695,-0.97,1.32,0.64,1.75
4.518054008483887,-1.24,1.58,0.34,2.03
4.523008823394775,-1.55,1.84,-0.03,2.4
4.531080722808838,-1.72,2.12,-0.09,2.73
4.541502952575684,-1.84,2.43,-0.06,3.04
4.551512718200684,-2.14,2.55,-0.08,3.32
4.562359809875488,-2.65,2.73,-0.01,3.8
4.572259902954102,-3.12,2.55,-0.34,4.04
4.5823187828063965,-3.14,2.83,-0.68,4.28
4.613282918930054,-3.04,3.12,-0.91,4.45
4.614741802215576,-3.37,3.22,-1.05,4.77
4.615888833999634,-3.65,3.75,-1.09,5.34
4.623085021972656,-3.74,4.29,-0.64,5.72
4.631767749786377,-4.12,4.1,-0.06,5.81
4.642411708831787,-5.08,3.53,-0.01,6.18
4.6524739265441895,-5.95,3.47,-0.53,6.9
4.662513732910156,-6.1,3.61,-1.16,7.18
4.672335863113403,-6.1,3.79,-1.79,7.4
4.683084964752197,-6.57,4.06,-2.34,8.06
4.714203834533691,-7.82,4.61,-2.44,9.39
4.715600967407227,-9.18,5.51,-2.11,10.91
4.7167649269104,-10.39,6.85,-1.38,12.52
4.723101854324341,-10.15,7.91,-0.76,12.89
4.732746839523315,-8.27,8.5,-0.12,11.85
4.742831707000732,-6.18,8.39,0.79,10.45
4.753665924072266,-5.38,8.34,0.9,9.96
4.763394832611084,-6.21,7.84,2.25,10.25
4.7740797996521,-8.38,6.95,3.73,11.5
4.783742904663086,-10.35,5.25,4.49,12.44
4.815244913101196,-10.88,2.44,4.73,12.11
4.816857814788818,-10.58,0.2,4.6,11.53
4.8180389404296875,-9.11,-0.36,4.02,9.96
4.823092937469482,-5.8,0.0,4.44,7.3
4.833313941955566,-0.95,0.54,4.34,4.47
4.84326696395874,7.44,-1.42,-1.09,7.65
4.854273796081543,13.72,-4.66,-1.05,14.52
4.863872051239014,7.56,-5.46,1.62,9.46
4.874194860458374,-3.53,-5.68,0.65,6.71
4.884208917617798,-9.02,-7.6,0.26,11.79
4.920320987701416,-13.58,-8.12,1.17,15.86
4.922236919403076,-15.78,-6.4,1.15,17.06
4.923377990722656,-12.37,-4.57,0.0,13.18
4.944208860397339,-5.58,-4.37,-0.99,7.15
4.946666717529297,-3.21,-4.18,-2.4,5.79
4.954839706420898,-3.09,-4.11,-2.84,5.87
4.957308769226074,-3.55,-4.12,-2.49,5.98
4.971775054931641,-4.16,-3.82,-2.35,6.11
4.974714756011963,-4.02,-3.26,-2.2,5.62
4.988416910171509,-3.11,-2.52,-1.7,4.34
5.014053821563721,-2.07,-1.54,-1.0,2.76
5.015889883041382,-1.08,-0.49,-0.8,1.43
5.017024993896484,-0.27,0.51,-1.19,1.32
5.024543762207031,0.57,1.29,-1.6,2.13
5.034466743469238,1.57,2.12,-2.0,3.31
5.04456901550293,2.63,3.21,-2.36,4.77
5.055041790008545,3.62,4.66,-2.79,6.52
5.065600872039795,4.47,6.06,-2.66,7.98
5.075337886810303,5.29,7.58,-2.03,9.46
5.086030006408691,5.8,8.5,-1.14,10.35
5.120072841644287,5.74,9.12,-0.31,10.78
5.12221097946167,5.32,10.13,0.53,11.45
5.123376846313477,4.33,10.54,2.23,11.61
5.143519878387451,3.63,10.2,4.9,11.88
5.145359039306641,3.15,8.1,6.66,10.94
5.157848834991455,2.35,5.66,4.25,7.45
5.160466909408569,3.51,5.11,-0.88,6.26
5.171391010284424,8.43,3.84,-0.66,9.28
5.175546884536743,12.75,1.86,2.29,13.08
5.188398838043213,13.63,1.01,1.48,13.74
5.211889743804932,12.46,1.06,-0.79,12.52
5.213475942611694,12.43,0.69,-2.32,12.66
5.215130805969238,13.19,0.71,-3.06,13.55
5.225664854049683,12.56,0.72,-3.11,12.95
5.235642910003662,9.47,0.12,-2.79,9.87
5.245712757110596,5.74,-0.77,-2.47,6.29
5.25623083114624,3.87,-1.51,-3.25,5.27
5.2666120529174805,4.6,-1.27,-5.65,7.39
5.276444911956787,5.68,-0.94,-9.53,11.13
5.286778926849365,2.43,0.22,-11.4,11.65
5.323099851608276,-8.6,3.77,-7.36,11.93
5.324507713317871,-15.15,13.83,-3.8,20.86
5.325778007507324,-7.29,17.72,-1.07,19.19
5.342943906784058,3.37,9.74,2.19,10.53
5.344106912612915,4.36,6.05,2.72,7.93
5.355988025665283,4.35,4.23,1.7,6.3
5.3577680587768555,4.59,-3.37,9.13,10.76
5.371932029724121,3.3,-7.98,10.33,13.46
5.376817941665649,-0.01,-5.54,9.96,11.39
5.388965845108032,-1.26,-2.41,4.3,5.08
5.416574954986572,-0.56,0.84,-2.54,2.73
5.418231964111328,2.49,2.51,-6.48,7.38
5.419802904129028,6.16,1.74,-5.09,8.17
5.426705837249756,8.31,0.54,-3.46,9.01
5.439933776855469,8.45,-0.36,-2.93,8.95
5.446829795837402,5.92,-1.08,-2.48,6.5
5.457218885421753,2.05,-1.15,-1.37,2.72
5.46737003326416,-0.83,-0.53,1.35,1.67
5.478113889694214,-2.19,0.06,3.15,3.83
5.488164901733398,-2.02,0.52,2.62,3.34
5.520995855331421,-0.59,0.41,1.21,1.4
5.5223307609558105,1.0,0.04,-0.3,1.04
5.523457050323486,1.7,-0.04,-1.13,2.04
5.542943000793457,1.24,0.12,-1.18,1.71
5.543766021728516,0.15,0.25,-0.92,0.96
5.556984901428223,-0.89,0.22,-0.43,1.01
5.559481859207153,-1.51,0.09,0.12,1.51
5.571805953979492,-1.58,-0.14,0.18,1.59
5.578153848648071,-1.38,-0.14,0.11,1.39
5.589195728302002,-1.11,0.04,-0.09,1.11
5.624274730682373,-0.84,0.19,-0.22,0.88
5.625840902328491,-0.61,0.18,-0.1,0.64
5.6269848346710205,-0.46,0.12,0.12,0.49
5.643106937408447,-0.61,0.1,0.27,0.67
5.643908977508545,-1.04,0.05,0.49,1.15
5.657026767730713,-1.27,-0.03,0.68,1.44
5.6595940589904785,-1.22,0.2,0.56,1.35
5.671896934509277,-1.02,0.63,0.04,1.19
5.678908824920654,-0.77,0.52,-0.32,0.98
5.689138889312744,-0.71,0.14,-0.19,0.74
5.724634885787964,-0.89,-0.02,0.06,0.89
5.7262208461761475,-1.13,0.08,0.12,1.13
5.727370738983154,-1.35,0.25,0.3,1.4
5.744271755218506,-1.39,0.46,0.59,1.57
5.74498176574707,-1.26,0.61,1.42,1.99
5.756343841552734,-1.59,0.95,2.12,2.81
5.758792877197266,-2.3,1.3,2.33,3.52
5.772125720977783,-2.69,1.41,2.15,3.72
5.779192924499512,-2.53,1.4,1.98,3.5
5.789543867111206,-2.48,1.53,1.82,3.43
5.821920871734619,-2.76,2.25,1.62,3.91
5.823462009429932,-3.12,2.75,0.55,4.19
5.8246049880981445,-3.27,3.27,-0.34,4.63
5.842278957366943,-3.17,3.63,-0.61,4.85
5.844045877456665,-3.43,3.95,-1.23,5.37
5.856099843978882,-3.67,4.67,-1.15,6.04
5.859325885772705,-4.33,5.56,-0.46,7.06
5.8715410232543945,-5.48,6.43,0.12,8.44
5.879852771759033,-6.72,6.83,0.21,9.58
5.890023708343506,-7.21,7.66,-0.04,10.51
5.9202680587768555,-7.23,9.16,0.53,11.68
5.921905040740967,-8.81,10.73,1.61,13.97
5.923053741455078,-11.66,10.59,2.41,15.93
5.943847894668579,-13.73,9.19,2.53,16.71
5.945725917816162,-12.56,7.83,2.33,14.98
5.956594944000244,-10.42,6.7,3.58,12.89
5.959981918334961,-7.43,6.86,3.65,10.75
5.972591876983643,-3.57,6.52,2.69,7.9
5.980831861495972,-1.32,4.36,1.38,4.75
5.990767002105713,-2.89,2.27,1.24,3.87
6.022225856781006,-6.41,0.57,1.54,6.61
6.023776054382324,-9.03,-0.75,1.67,9.21
6.024915933609009,-9.38,-2.19,2.06,9.85
6.044337749481201,-7.28,-1.99,3.49,8.31
6.04630184173584,-2.86,-0.18,2.62,3.88
6.0578508377075195,4.13,-2.14,-0.92,4.74
6.061261892318726,8.15,-4.27,-2.21,9.46
6.072144031524658,2.6,-3.04,-2.61,4.77
6.081416845321655,-3.39,-2.49,-2.37,4.82
6.091434955596924,-7.12,-3.44,-1.34,8.02
6.127318859100342,-9.41,-4.42,-0.62,10.41
6.128838062286377,-8.79,-4.81,0.12,10.02
6.1299848556518555,-6.31,-4.92,0.38,8.01
6.141599893569946,-4.66,-4.77,0.23,6.67
6.142743825912476,-4.04,-4.61,-0.1,6.13
6.157087802886963,-4.23,-4.74,-0.21,6.35
6.1611328125,-4.92,-4.71,-0.09,6.81
6.172770023345947,-5.38,-4.33,0.16,6.9
6.181999921798706,-5.37,-3.65,0.33,6.5
6.192364931106567,-5.06,-2.83,0.22,5.8
6.225128889083862,-4.58,-1.95,0.2,4.98
6.226700782775879,-3.72,-1.12,0.47,3.91
6.22789192199707,-2.69,-0.42,0.65,2.79
6.2435150146484375,-1.73,0.11,0.33,1.76
6.245296955108643,-0.98,0.71,-0.18,1.22
6.257304906845093,-0.33,1.62,-0.71,1.79
6.2619829177856445,0.41,2.51,-1.22,2.82
6.273094892501831,1.18,3.08,-1.71,3.71
6.282524824142456,2.06,3.55,-2.04,4.58
6.292636871337891,3.19,4.13,-2.42,5.75
6.325852870941162,4.51,5.02,-2.58,7.22
6.327430725097656,5.48,5.55,-2.72,8.26
6.328572750091553,6.08,6.09,-2.12,8.86
6.342527866363525,6.05,6.18,-1.76,8.82
6.343708038330078,5.63,6.62,-1.4,8.8
6.357054710388184,5.3,6.88,-0.83,8.72
6.362661838531494,5.48,6.19,-0.15,8.26
6.372793912887573,6.23,4.34,-0.13,7.59
6.383156776428223,7.44,4.24,-0.91,8.61
6.39326286315918,8.85,4.52,-1.46,10.04
6.424336910247803,9.95,3.93,-0.2,10.69
6.42587685585022,10.47,3.15,0.47,10.94
6.427015781402588,11.19,2.41,-1.47,11.54
6.444945812225342,11.59,1.77,-3.03,12.1
6.445647716522217,11.12,1.5,-1.83,11.36
6.4566497802734375,9.01,2.05,0.0,9.24
6.463173866271973,9.35,0.25,-2.51,9.68
6.4735798835754395,10.64,-0.36,-4.94,11.73
6.484030723571777,8.33,0.21,-17.58,19.45
6.493854999542236,-4.83,8.19,-18.16,20.49
6.523077011108398,-17.33,16.92,-1.44,24.26
6.524747848510742,-14.48,15.52,-0.08,21.22
6.525914907455444,-0.45,8.99,2.43,9.32
6.543088912963867,6.92,7.51,8.99,13.6
6.543986797332764,13.57,0.34,-4.22,14.21
6.5574798583984375,18.77,-5.9,-4.63,20.21
6.56427001953125,12.88,-7.14,6.38,16.04
6.57404899597168,2.02,-4.67,10.44,11.61
6.584253787994385,-2.18,-1.96,5.92,6.6
6.594509840011597,-3.58,1.17,-5.54,6.69
6.62532377243042,-0.07,2.92,-7.09,7.66
6.6280317306518555,5.15,2.5,-2.89,6.41
6.629749774932861,6.48,1.1,-1.87,6.83
6.645242929458618,4.05,-0.79,-1.75,4.48
6.647707939147949,0.49,-1.34,0.41,1.48
6.656299829483032,-2.05,-0.77,2.02,2.97
6.664608001708984,-2.96,-0.09,2.53,3.89
6.6749467849731445,-2.18,0.19,2.48,3.3
6.684969902038574,-0.81,0.09,1.26,1.5
6.6950860023498535,-0.02,-0.17,-0.08,0.18
6.723853826522827,0.36,-0.34,-0.56,0.74
6.726071834564209,0.64,-0.25,-0.37,0.78
6.727845907211304,0.44,-0.12,0.03,0.45
6.743818759918213,-0.59,-0.03,0.46,0.74
6.745655059814453,-1.78,0.2,0.55,1.87
6.758189916610718,-2.46,0.47,0.25,2.51
6.765260934829712,-2.39,0.43,0.08,2.42
6.775548934936523,-1.56,0.19,-0.32,1.6
6.785586833953857,-0.6,0.08,-0.34,0.69
6.79564094543457,-0.23,-0.01,-0.12,0.25
6.824854850769043,-0.35,0.41,0.02,0.53
6.8270487785339355,-0.28,0.45,0.11,0.54
6.8286988735198975,-0.27,0.19,0.06,0.33
6.84557580947876,-0.28,-0.11,0.23,0.37
6.848108768463135,-0.41,-0.19,0.16,0.47
6.856008052825928,-0.42,0.0,0.07,0.42
6.865684986114502,-0.65,0.41,0.02,0.76
6.876185894012451,-0.79,0.63,0.01,1.01
6.886645793914795,-0.91,0.6,-0.03,1.09
6.89628791809082,-1.04,0.52,-0.06,1.16
6.926076889038086,-0.96,0.29,-0.36,1.06
6.928122043609619,-0.73,0.12,-0.42,0.85
6.929769039154053,-0.59,0.49,-0.47,0.89
6.942821025848389,-0.64,0.87,-0.26,1.11
6.946092844009399,-0.88,1.04,-0.25,1.38
6.956897735595703,-1.22,1.22,-0.17,1.73
6.966565847396851,-1.46,1.3,0.01,1.95
6.977184772491455,-1.51,1.18,0.14,1.92
6.987231731414795,-1.51,1.09,0.2,1.87
6.997288942337036,-1.66,1.16,0.22,2.03
7.025387763977051,-1.63,1.24,0.36,2.07
7.027318954467773,-1.59,1.3,0.61,2.14
7.028445720672607,-2.12,1.73,0.99,2.9
7.043939828872681,-3.03,2.29,1.51,4.08
7.046774864196777,-3.76,2.71,1.84,4.98
7.058126926422119,-4.26,3.15,1.59,5.53
7.0674848556518555,-4.59,3.52,0.98,5.86
7.077294826507568,-4.76,3.76,-0.03,6.06
7.0874128341674805,-5.09,4.11,-1.14,6.64
7.097725868225098,-5.27,4.7,-1.45,7.2
7.128870010375977,-5.96,5.19,-1.2,7.99
7.131412029266357,-7.62,5.32,-0.46,9.3
7.133147716522217,-10.01,5.75,0.07,11.54
7.141472816467285,-10.43,6.76,0.69,12.44
7.147146940231323,-9.65,7.14,1.53,12.1
7.15780782699585,-12.48,7.78,1.1,14.74
7.167695045471191,-12.93,9.09,1.82,15.9
7.178038835525513,-8.05,10.25,1.88,13.16
7.188115835189819,-2.35,10.09,1.64,10.48
7.19856595993042,0.17,9.66,4.48,10.64
7.228549957275391,-1.74,7.71,5.79,9.79
7.2306928634643555,-4.94,5.71,4.14,8.61
7.232326984405518,-6.89,3.21,3.54,8.38
7.241619825363159,-7.76,0.58,3.49,8.52
7.2477240562438965,-7.87,-1.03,2.88,8.44
7.258323907852173,-7.16,-2.05,2.89,7.98
7.268502712249756,-4.28,-1.16,3.27,5.5
7.278846740722656,0.87,-0.92,1.08,1.66
7.288751840591431,5.49,-2.95,-0.95,6.3
7.299130916595459,4.2,-3.92,0.38,5.75
7.33110785484314,-2.31,-3.5,1.43,4.43
7.333207845687866,-6.2,-4.4,1.83,7.81
7.334255933761597,-8.3,-5.96,1.8,10.37
7.341547012329102,-9.52,-6.74,1.4,11.74
7.348310947418213,-9.37,-6.12,0.83,11.22
7.35888671875,-6.97,-4.98,0.71,8.59
7.368906021118164,-5.48,-4.07,0.7,6.86
7.379128932952881,-4.94,-3.46,0.7,6.07
7.38917088508606,-4.4,-3.11,0.6,5.42
7.399407863616943,-3.77,-2.88,0.13,4.74
7.42959189414978,-3.58,-2.63,-0.24,4.44
7.432055950164795,-3.75,-2.46,-0.38,4.5
7.433724880218506,-4.16,-1.86,-0.61,4.59
7.4419379234313965,-4.15,-0.73,-0.85,4.29
7.449378967285156,-3.14,0.48,-0.7,3.25
7.45986795425415,-1.61,1.25,-0.59,2.12
7.469660758972168,0.07,1.48,-0.88,1.72
7.479817867279053,1.33,1.53,-1.44,2.48
7.490109920501709,1.83,1.91,-2.05,3.34
7.499924898147583,2.16,2.48,-2.71,4.26
7.53028678894043,2.57,3.02,-3.16,5.07
7.5323498249053955,2.89,3.38,-3.08,5.4
7.533998012542725,3.06,4.19,-2.73,5.86
7.542094707489014,3.3,5.37,-2.67,6.84
7.549571990966797,3.97,6.96,-2.65,8.43
7.560189723968506,5.52,8.6,-2.26,10.46
7.57023286819458,7.61,8.65,-0.83,11.55
7.580349922180176,9.07,7.22,-0.11,11.59
7.590383052825928,9.75,6.98,-0.9,12.02
7.6008148193359375,8.36,7.04,-0.88,10.96
7.632570743560791,7.37,6.73,2.12,10.2
7.634582042694092,7.11,4.52,4.99,9.79
7.6357197761535645,7.35,3.56,3.0,8.7
7.641180038452148,9.32,3.77,1.21,10.12
7.650287866592407,12.42,2.89,2.48,12.99
7.66117000579834,12.87,1.89,1.37,13.07
7.670814037322998,13.51,0.86,-1.46,13.61
7.681039810180664,14.11,1.13,-3.2,14.51
7.691054821014404,12.71,2.38,-4.43,13.66
7.701859951019287,9.29,2.46,-11.63,15.08
7.732950925827026,-2.4,6.14,-9.41,11.48
7.735047817230225,-11.95,10.04,5.22,16.45
7.736268043518066,-11.97,9.76,7.71,17.26
7.741889953613281,-1.06,6.04,3.5,7.06
7.7515549659729,6.3,7.14,5.33,10.91
7.7608559131622314,9.12,6.48,6.27,12.82
7.771608829498291,14.32,0.09,-3.3,14.69
7.781683921813965,12.57,-5.66,-0.3,13.78
7.791583061218262,3.27,-5.09,3.33,6.9
7.802141904830933,-1.03,-2.53,4.83,5.54
7.812143802642822,-2.23,-0.01,1.76,2.84
7.822314739227295,-1.8,1.97,-5.33,5.96
7.85568380355835,1.37,2.96,-7.35,8.04
7.858388900756836,4.42,2.07,-3.81,6.19
7.860809803009033,4.95,0.17,-0.35,4.96
7.877760887145996,3.27,-1.54,1.4,3.87
7.8802900314331055,0.96,-1.71,2.19,2.93
7.891812801361084,-0.77,-0.91,2.77,3.01
7.89458703994751,-1.67,-0.06,2.77,3.23
7.906371831893921,-1.57,0.35,2.03,2.59
7.9122679233551025,-0.84,0.27,0.44,0.98
7.923187732696533,0.11,0.12,-1.24,1.25
7.952831745147705,0.94,0.09,-1.93,2.14
7.954659938812256,1.24,0.1,-1.61,2.03
7.955784797668457,0.96,-0.01,-0.86,1.28
7.961820840835571,0.11,-0.21,0.12,0.26
7.972534894943237,-0.96,-0.26,0.79,1.27
7.983254909515381,-1.62,-0.08,0.83,1.82
7.992578983306885,-1.66,0.08,0.7,1.8
8.003233909606934,-1.15,0.12,0.37,1.21
8.012863874435425,-0.46,0.13,0.09,0.48
8.023183822631836,-0.25,0.09,-0.13,0.29
8.056334972381592,-0.47,0.13,-0.13,0.5
8.058266878128052,-0.81,0.16,-0.06,0.82
8.059995889663696,-1.1,0.14,0.18,1.12
8.076897859573364,-1.22,0.03,0.55,1.33
8.078651905059814,-1.1,-0.02,0.77,1.34
8.090878009796143,-0.89,-0.01,0.79,1.19
8.093422889709473,-0.93,0.16,0.66,1.15
8.106352806091309,-1.02,0.33,0.41,1.14
8.113528728485107,-1.06,0.33,0.18,1.12
8.123556852340698,-1.12,0.28,0.13,1.16
8.154217720031738,-1.21,0.27,0.39,1.29
8.156357765197754,-1.51,0.4,0.34,1.59
8.157814025878906,-1.71,0.54,0.38,1.83
8.177672863006592,-1.9,0.7,0.48,2.08
8.18011999130249,-1.98,1.0,0.64,2.3
8.189623832702637,-1.92,1.14,0.47,2.28
8.193723917007446,-1.53,1.27,0.15,1.99
8.206328868865967,-1.05,1.59,0.03,1.9
8.214056968688965,-0.76,2.08,0.1,2.21
8.224448919296265,-0.71,2.54,-0.28,2.65
8.25434398651123,-1.47,2.96,-0.37,3.32
8.255963802337646,-2.59,3.57,0.25,4.41
8.257115840911865,-3.54,3.88,1.02,5.35
8.278099060058594,-4.16,4.09,1.35,5.98
8.28056001663208,-4.52,4.51,1.1,6.47
8.289710998535156,-4.85,5.02,0.71,7.01
8.294250011444092,-5.18,5.54,0.08,7.58
8.311182975769043,-5.65,6.22,-0.39,8.41
8.314438819885254,-6.37,6.3,-0.14,8.96
8.32469391822815,-7.99,5.8,0.2,9.87
8.351395845413208,-9.75,6.21,0.44,11.56
8.353654861450195,-10.26,7.05,0.99,12.48
8.354837894439697,-9.77,7.33,1.82,12.34
8.364168882369995,-12.97,7.98,1.64,15.31
8.374748706817627,-14.27,8.72,2.72,16.94
8.385111808776855,-11.59,9.41,5.0,15.74
8.395421028137207,-6.61,12.36,5.96,15.23
8.405508041381836,-0.61,12.78,3.05,13.15
8.415513038635254,3.72,8.32,2.25,9.38
8.42574405670166,1.81,3.81,4.11,5.88
8.456750869750977,-4.13,1.96,4.0,6.07
8.458759784698486,-9.35,1.27,3.3,9.99
8.460259914398193,-12.05,0.5,4.35,12.82
8.479099750518799,-10.08,0.32,6.79,12.15
8.480962753295898,-3.67,0.43,5.66,6.75
8.489997863769531,2.84,-1.78,0.42,3.37
8.495431900024414,5.46,-4.23,-1.02,6.98
8.506887912750244,-1.5,-3.53,0.13,3.83
8.51633882522583,-7.69,-3.11,0.24,8.29
8.526096820831299,-10.53,-4.73,0.56,11.55
8.556365013122559,-12.71,-5.48,0.9,13.87
8.558451890945435,-12.37,-4.88,0.74,13.31
8.559759855270386,-7.2,-4.52,0.25,8.5
8.57687783241272,-3.53,-4.05,-0.53,5.39
8.578621864318848,-2.76,-3.64,-1.12,4.7
8.591006755828857,-3.28,-3.49,-1.31,4.96
8.59616494178772,-4.35,-3.34,-1.17,5.6
8.607427835464478,-4.8,-3.25,-0.87,5.86
8.616627931594849,-4.73,-3.06,-0.5,5.65
8.626606941223145,-4.69,-2.56,-0.15,5.34
8.659080982208252,-4.67,-1.63,0.23,4.95
8.661718845367432,-4.66,-0.48,0.44,4.7
8.663442850112915,-4.61,0.74,1.08,4.79
8.676918983459473,-4.22,1.68,1.46,4.77
8.678674936294556,-2.85,2.86,-0.33,4.05
8.691164016723633,0.27,3.8,-2.33,4.46
8.697090864181519,4.02,4.14,-2.92,6.46
8.707335948944092,6.49,4.61,-3.75,8.79
8.717144012451172,7.33,4.97,-4.93,10.13
8.727752923965454,7.3,4.86,-5.8,10.51
8.75947093963623,7.18,4.27,-5.68,10.1
8.761820793151855,7.36,4.07,-4.93,9.74
8.763384819030762,7.52,4.18,-4.57,9.74
8.776076793670654,6.44,4.23,-4.13,8.74
8.777814865112305,5.64,5.19,-3.58,8.45
8.79114580154419,6.31,5.9,-2.87,9.1
8.79738998413086,7.97,5.64,-1.48,9.87
8.807684898376465,9.6,5.52,-0.16,11.07
8.817895889282227,11.07,5.58,0.37,12.4
8.827959060668945,11.84,5.43,0.52,13.03
8.859444856643677,11.31,4.33,0.96,12.14
8.86164379119873,10.12,3.16,0.89,10.63
8.863343715667725,10.03,2.27,0.76,10.31
8.877606868743896,11.56,1.77,0.51,11.7
8.880043983459473,12.69,2.52,-0.92,12.97
8.89086389541626,13.13,2.61,-2.72,13.66
8.898025035858154,13.64,1.61,-5.71,14.87
8.908347845077515,4.93,0.69,-8.71,10.03
8.918444871902466,-9.29,4.32,-3.92,10.96
8.92910099029541,-14.79,14.87,-3.39,21.24
8.959872722625732,-8.14,13.88,-1.48,16.15
8.96201491355896,0.0,10.58,5.21,11.79
8.963531970977783,4.31,11.04,15.38,19.41
8.977369785308838,10.74,6.75,-1.51,12.77
8.979097843170166,16.59,-1.06,-10.57,19.69
8.990826845169067,9.13,-7.89,0.13,12.06
8.99866771697998,0.52,-7.04,7.42,10.24
9.008738994598389,-0.47,-5.15,12.41,13.44
9.0190110206604,0.29,-1.6,1.46,2.18
9.029073715209961,2.33,1.95,-8.81,9.31
9.059152841567993,5.31,3.29,-6.57,9.06
9.061322927474976,6.05,3.02,-1.82,7.0
9.062410831451416,4.07,1.06,-1.31,4.4
9.07847785949707,1.77,-1.16,-0.96,2.32
9.080187797546387,0.1,-1.73,0.41,1.78
9.091811895370483,-0.95,-0.81,0.87,1.52
9.099195003509521,-1.22,0.24,1.14,1.68
9.10984182357788,-0.89,0.47,1.51,1.81
9.11996603012085,-0.48,0.16,1.19,1.29
9.129791736602783,-0.11,-0.29,0.12,0.33
9.16046690940857,0.29,-0.37,-0.84,0.96
9.162654876708984,0.56,-0.14,-0.91,1.07
9.16405987739563,0.35,0.07,-0.58,0.68
9.176652908325195,-0.4,0.25,-0.05,0.47
9.17949891090393,-1.32,0.24,0.55,1.45
9.192157745361328,-1.38,0.1,0.94,1.67
9.200058937072754,-2.32,0.06,0.96,2.51
9.210176944732666,-1.92,0.02,0.98,2.15
9.220541000366211,-1.51,-0.02,0.64,1.64
9.230818748474121,-1.28,-0.15,0.42,1.35
9.260791778564453,-1.31,-0.13,0.22,1.33
9.263051986694336,-1.3,-0.03,0.2,1.31
9.264790058135986,-1.07,0.22,0.28,1.12
9.275559902191162,-0.8,0.45,0.13,0.92
9.279964923858643,-0.62,0.13,0.41,0.75
9.29217004776001,-0.56,-0.21,0.69,0.91
9.300711870193481,-0.51,-0.18,0.65,0.84
9.310722827911377,-0.7,-0.06,0.66,0.96
9.320637941360474,-0.9,0.18,0.35,0.98
9.331148862838745,-0.58,0.27,0.12,0.65
9.356629848480225,-0.24,0.24,0.1,0.35
9.358144760131836,-0.2,0.22,0.15,0.33
9.360130786895752,-0.66,0.34,0.15,0.75
9.378286838531494,-1.01,0.57,0.34,1.2
9.380807876586914,-1.04,0.58,0.61,1.33
9.390931844711304,-0.72,0.66,0.62,1.15
9.40127182006836,-0.55,0.82,0.79,1.26
9.411151885986328,-0.87,0.83,0.72,1.4
9.421703815460205,-1.06,1.16,0.04,1.57
9.43141484260559,-0.96,1.4,-0.56,1.78
9.460939884185791,-0.85,1.66,-1.11,2.17
9.463191032409668,-1.63,1.72,-0.66,2.45
9.464969873428345,-2.92,2.52,0.21,3.86
9.478538036346436,-4.55,3.45,1.39,5.87
9.481330871582031,-6.05,4.16,1.69,7.53
9.495534896850586,-6.43,4.68,1.26,8.05
9.50190782546997,-6.15,5.38,0.39,8.18
9.511900901794434,-5.93,5.73,-0.51,8.26
9.522995948791504,-5.89,5.86,-1.33,8.41
9.532173871994019,-6.15,6.48,-1.84,9.12
9.562062740325928,-7.01,8.06,-1.66,10.81
9.564068794250488,-8.94,9.19,-0.39,12.82
9.565194845199585,-9.01,9.11,0.83,12.83
9.577298879623413,-13.98,10.67,0.58,17.59
9.582067012786865,-16.91,11.58,1.7,20.56
9.592336893081665,-18.19,10.34,2.5,21.07
9.6023428440094,-17.71,9.08,2.33,20.03
9.612527847290039,-9.79,8.64,2.67,13.32
9.622817039489746,0.06,10.15,4.39,11.05
9.632938861846924,8.62,8.37,4.63,12.87
9.664358854293823,8.98,3.79,6.75,11.85
9.66683578491211,1.58,0.76,5.87,6.12
9.668463706970215,-5.51,-0.71,4.09,6.89
9.675838947296143,-9.67,-1.83,3.47,10.43
9.682320833206177,-10.46,-2.64,5.18,11.96
9.692564010620117,-6.49,-1.87,7.05,9.76
9.703287839889526,-1.55,-1.11,3.27,3.78
9.71331787109375,4.62,-2.97,0.27,5.49
9.723614931106567,7.16,-5.34,0.81,8.96
9.733340740203857,1.75,-5.32,1.98,5.94
9.764281749725342,-5.07,-4.8,2.96,7.58
9.76636290550232,-7.32,-6.15,3.51,10.18
9.768008708953857,-9.08,-7.91,1.77,12.17
9.776159763336182,-10.82,-7.77,-0.52,13.33
9.782911777496338,-11.47,-5.32,-0.76,12.66
9.793627738952637,-8.41,-3.99,0.48,9.32
9.80400800704956,-4.57,-3.92,1.32,6.16
9.813833713531494,-2.7,-3.63,1.22,4.68
9.824260711669922,-1.8,-3.24,0.71,3.77
9.834348917007446,-1.94,-2.93,0.11,3.51
9.865781784057617,-2.58,-2.66,-0.05,3.7
9.868085861206055,-2.84,-2.35,0.23,3.69
9.869762897491455,-2.74,-1.83,0.4,3.31
9.875772953033447,-2.59,-0.96,0.23,2.77
9.883567810058594,-2.27,-0.13,0.25,2.28
9.894099712371826,-1.73,0.44,0.7,1.91
9.904269933700562,-0.92,0.71,0.99,1.52
9.914412021636963,-0.04,1.12,0.87,1.41
9.924437046051025,0.66,2.05,0.15,2.15
9.935197830200195,1.47,2.97,-0.7,3.38
9.967123985290527,2.54,3.71,-1.28,4.67
9.969202041625977,3.63,4.23,-1.73,5.83
9.970623016357422,4.65,4.64,-2.07,6.88
9.975419998168945,5.39,5.07,-2.44,7.79
9.984432935714722,5.77,5.79,-2.58,8.57
9.994353771209717,6.05,6.49,-2.55,9.23
10.004842758178711,6.31,6.92,-1.72,9.52
10.015038013458252,6.66,6.96,-0.82,9.66
10.02507495880127,7.15,6.9,-0.07,9.93
10.035457849502563,7.63,5.7,0.08,9.52
10.064268827438354,8.18,4.31,-1.08,9.3
10.066565036773682,8.32,4.61,-2.08,9.73
10.068189859390259,8.46,4.71,-1.05,9.73
10.07538390159607,9.25,4.05,1.54,10.21
10.084930896759033,10.31,3.55,1.7,11.03
10.09530782699585,11.12,3.07,0.0,11.53
10.105363845825195,10.98,3.27,0.38,11.46
10.115527868270874,9.23,3.9,1.94,10.2
10.125946998596191,9.01,2.55,0.56,9.38
10.135817050933838,10.43,1.29,-2.34,10.76
10.165761947631836,10.52,0.45,-7.4,12.86
10.168078899383545,5.41,0.55,-14.41,15.4
10.169858932495117,-4.74,5.22,-13.32,15.07
10.175514936447144,-9.55,10.49,-4.67,14.93
10.185349941253662,-5.62,9.3,4.0,11.57
10.195520877838135,2.53,9.07,9.74,13.54
10.206268787384033,8.17,12.66,6.86,16.55
10.216267824172974,14.15,9.67,-5.68,18.05
10.226424932479858,9.82,-2.71,-6.61,12.14
10.236484050750732,-1.39,-5.76,1.86,6.21
10.268184900283813,-3.56,-7.85,12.8,15.43
10.270401000976562,-4.69,-6.25,13.11,15.26
10.271553039550781,-3.62,-1.5,1.9,4.35
10.27588176727295,1.51,1.85,-8.16,8.5
10.291707992553711,6.02,3.57,-8.08,10.68
10.296799898147583,8.15,3.77,-4.27,9.94
10.312361717224121,6.43,1.98,-2.61,7.21
10.316642761230469,2.53,-0.31,-1.76,3.09
10.326601028442383,-0.06,-1.45,-0.54,1.54
10.337122917175293,-0.78,-1.56,1.68,2.42
10.364607810974121,-0.38,-0.83,3.78,3.88
10.365965843200684,-0.29,0.05,4.19,4.2
10.36714792251587,-0.97,0.18,3.05,3.2
10.377619743347168,-1.93,-0.03,1.46,2.42
10.386912822723389,-2.52,0.02,0.44,2.55
10.396711826324463,-2.33,0.3,-0.04,2.34
10.40721082687378,-1.47,0.29,-0.55,1.59
10.417850971221924,-0.73,-0.08,-0.31,0.79
10.427580833435059,-0.85,-0.36,0.52,1.05
10.437803745269775,-1.46,-0.35,1.0,1.8
10.468740940093994,-1.87,-0.27,0.97,2.12
10.471086978912354,-1.75,-0.28,0.75,1.92
10.47262191772461,-0.99,-0.23,0.38,1.08
10.477221012115479,-0.06,-0.07,-0.08,0.12
10.491522789001465,0.41,-0.15,-0.05,0.43
10.497256755828857,0.36,-0.19,0.18,0.44
10.51057481765747,-0.07,-0.1,0.42,0.43
10.517818927764893,-0.53,-0.05,0.74,0.91
10.52781891822815,-1.2,0.05,0.66,1.37
10.538758754730225,-1.63,0.22,0.32,1.67
10.566128730773926,-1.07,0.35,0.11,1.13
10.568222999572754,-0.41,0.43,-0.17,0.61
10.569709777832031,-0.25,0.39,-0.35,0.58
10.577626705169678,-0.42,0.34,-0.34,0.63
10.588028907775879,-0.72,0.32,-0.17,0.8
10.598285913467407,-0.87,0.32,-0.08,0.93
10.608268737792969,-0.77,0.32,0.09,0.83
10.618710994720459,-0.69,0.39,0.17,0.81
10.628746032714844,-0.67,0.54,0.23,0.89
10.639360904693604,-0.79,0.69,0.47,1.14
10.671418905258179,-0.98,0.83,0.71,1.46
10.673701763153076,-1.2,0.93,1.49,2.12
10.675505876541138,-1.12,1.14,0.42,1.65
10.678326845169067,-0.69,1.99,-0.5,2.16
10.688474893569946,-1.18,2.18,-0.4,2.51
10.699059009552002,-1.57,2.05,-1.02,2.77
10.709617853164673,-1.76,2.18,-1.27,3.07
10.71943187713623,-2.38,2.36,-0.71,3.42
10.729392051696777,-3.21,2.75,-0.11,4.22
10.739480018615723,-3.98,3.2,0.75,5.16
10.770127773284912,-4.75,3.65,1.16,6.1
10.772260904312134,-5.43,4.11,1.08,6.89
10.774025917053223,-5.9,4.64,0.58,7.52
10.77906584739685,-6.28,5.39,-0.13,8.27
10.789108753204346,-6.81,5.91,-0.74,9.04
10.799795866012573,-7.73,6.12,-1.47,9.96
10.80962586402893,-8.95,6.51,-2.14,11.27
10.820020914077759,-8.23,7.37,-2.11,11.24
10.83029294013977,-9.89,8.11,-2.06,12.95
10.840808868408203,-13.37,8.72,-1.57,16.03
10.871378898620605,-14.44,9.26,-0.13,17.15
10.87335205078125,-13.71,8.9,2.32,16.5
10.875274896621704,-9.12,9.42,4.78,13.95
10.879645824432373,-2.37,13.9,2.37,14.29
10.890113830566406,4.42,11.65,2.14,12.64
10.900076866149902,4.81,5.23,5.17,8.78
10.910297870635986,-0.95,1.86,5.86,6.22
10.920599937438965,-7.04,0.57,4.71,8.48
10.930529832839966,-10.57,-0.84,3.88,11.29
10.94111680984497,-11.88,-1.82,3.89,12.63
10.972286939620972,-9.07,-1.15,5.67,10.75
10.974165916442871,-2.4,-0.65,2.71,3.67
10.975642919540405,4.03,-2.48,-1.91,5.1
10.996456861495972,5.77,-4.45,-0.23,7.29
10.99848484992981,-1.33,-3.85,2.08,4.57
11.008790016174316,-6.8,-4.24,2.92,8.52
11.011384010314941,-8.93,-6.4,3.23,11.45
11.024909973144531,-10.27,-7.66,2.33,13.02
11.03104305267334,-10.51,-6.82,1.03,12.57
11.042243003845215,-7.44,-5.45,0.32,9.22
11.072289943695068,-4.86,-4.55,0.12,6.65
11.074495792388916,-3.93,-3.91,0.02,5.54
11.076097965240479,-3.48,-3.57,0.02,4.98
11.095623970031738,-3.26,-3.24,-0.02,4.59
11.098127841949463,-2.83,-2.87,-0.38,4.04
11.108767986297607,-1.86,-2.53,-0.89,3.26
11.111808776855469,-0.85,-2.12,-1.42,2.68
11.124955892562866,-0.15,-1.36,-2.14,2.54
11.132054805755615,0.34,-0.48,-2.58,2.64
11.141753911972046,0.57,-0.05,-1.65,1.74
11.171624898910522,0.4,-0.19,-0.33,0.55
11.173346042633057,0.7,-0.4,0.32,0.86
11.174479007720947,1.7,0.05,-0.13,1.7
11.181182861328125,2.53,1.14,-0.96,2.93
11.192090034484863,2.89,2.07,-1.53,3.87
11.20143985748291,3.2,2.9,-1.38,4.53
11.212044715881348,3.4,3.34,-1.02,4.87
11.222364902496338,3.32,4.03,-0.55,5.25
11.232256889343262,3.15,4.93,-0.64,5.88
11.242512941360474,3.12,6.5,-0.68,7.24
11.272809028625488,3.08,7.22,-0.71,7.88
11.274885892868042,3.17,7.37,0.01,8.02
11.276608943939209,3.8,7.81,0.86,8.72
11.296767711639404,4.48,8.0,1.72,9.32
11.299470901489258,4.67,7.18,2.14,8.82
11.312386989593506,4.66,5.23,1.61,7.18
11.31469988822937,5.38,3.46,-0.25,6.4
11.324120044708252,7.81,2.86,-2.18,8.59
11.332567930221558,10.95,2.33,-1.16,11.25
11.343036890029907,12.56,1.67,0.45,12.67
11.370553016662598,11.92,1.52,-0.41,12.02
11.372089862823486,10.8,1.52,-2.37,11.16
11.37317705154419,11.04,1.31,-2.78,11.45
11.382833003997803,12.17,1.23,-1.83,12.36
11.393057823181152,12.69,1.9,-1.61,12.93
11.40333080291748,11.62,2.11,-0.82,11.83
11.413306713104248,10.64,1.07,-5.3,11.93
11.42415475845337,5.7,2.24,-11.2,12.76
11.433671951293945,-4.17,4.52,-11.35,12.9
11.44430685043335,-13.13,8.93,-1.99,16.0
11.476696014404297,-12.76,9.53,-0.12,15.92
11.478672981262207,-2.13,12.13,6.74,14.03
11.480355739593506,7.59,13.95,10.11,18.82
11.494588851928711,16.75,9.27,-11.66,22.41
11.495779037475586,14.01,-3.42,-8.17,16.57
11.509536743164062,0.63,-7.48,5.9,9.54
11.513597965240479,-4.28,-6.51,16.6,18.33
11.527517795562744,-5.9,-3.11,10.28,12.25
11.534383773803711,-3.83,1.18,-6.48,7.61
11.544198989868164,3.46,1.32,-2.06,4.23
11.571770906448364,7.16,0.27,3.18,7.83
11.574055910110474,4.31,0.22,-0.75,4.38
11.575804710388184,-0.96,0.09,-1.18,1.52
11.58361005783081,-4.66,0.31,1.02,4.78
11.594526767730713,-4.99,0.46,1.43,5.21
11.604662895202637,-2.45,-0.23,0.59,2.53
11.614478826522827,0.01,-0.76,0.36,0.84
11.624715805053711,1.14,-0.69,0.02,1.33
11.634781837463379,0.98,-0.41,-0.23,1.08
11.64494800567627,0.13,-0.1,-0.27,0.31
11.676908016204834,-0.47,0.13,-0.09,0.49
11.679487705230713,-0.48,0.1,0.18,0.52
11.68120288848877,-0.17,-0.03,0.25,0.3
11.697280883789062,0.16,-0.12,0.2,0.28
11.700005054473877,0.33,-0.08,0.07,0.34
11.708798885345459,0.34,-0.08,-0.13,0.37
11.71523380279541,0.25,-0.07,-0.33,0.41
11.72541093826294,0.06,0.03,-0.25,0.25
11.735349893569946,-0.32,-0.03,-0.08,0.33
11.74541187286377,-0.39,0.08,0.03,0.39
11.776426792144775,-0.19,0.08,0.24,0.31
11.778178930282593,-0.18,0.09,0.35,0.4
11.779254913330078,-0.44,0.22,0.34,0.59
11.795225858688354,-0.63,0.34,0.27,0.76
11.796971797943115,-0.77,0.4,0.24,0.9
11.809473991394043,-0.81,0.5,0.29,0.99
11.81556487083435,-0.76,0.54,0.43,1.02
11.825584888458252,-0.76,0.36,0.49,0.97
11.836050987243652,-0.69,0.15,0.39,0.8
11.846516847610474,-0.48,0.04,-0.27,0.55
11.879688739776611,-0.12,0.24,-0.41,0.49
11.882442951202393,-0.16,0.38,-0.48,0.63
11.884125709533691,-0.46,0.62,-0.51,0.92
11.89490270614624,-0.72,0.8,-0.09,1.08
11.896637916564941,-1.21,0.93,0.15,1.53
11.909767866134644,-1.44,1.1,0.26,1.83
11.916279792785645,-1.39,1.08,0.16,1.76
11.926565885543823,-1.19,1.15,0.04,1.65
11.936511039733887,-1.16,1.26,-0.09,1.71
11.947075843811035,-1.45,1.2,0.02,1.88
11.977635860443115,-2.04,1.26,0.27,2.41
11.979719877243042,-2.51,1.69,0.78,3.12
11.981340885162354,-2.97,2.26,1.36,3.97
11.995179891586304,-3.51,2.86,1.72,4.84
11.99693775177002,-4.12,3.46,1.68,5.63
12.009841918945312,-4.78,3.9,1.2,6.28
12.016762733459473,-5.36,3.88,0.46,6.63
12.027231931686401,-5.53,3.89,-0.53,6.78
12.037295818328857,-5.48,4.13,-1.24,6.97
12.047638893127441,-5.67,5.01,-1.54,7.72
12.07911992073059,-6.55,5.41,-1.04,8.55
12.081224918365479,-8.31,5.22,-0.99,9.86
12.08256983757019,-8.73,5.84,-0.99,10.54
12.094467878341675,-8.48,6.56,-0.57,10.73
12.096909046173096,-12.09,7.33,-0.36,14.14
12.109701871871948,-13.78,8.81,0.94,16.38
12.117418766021729,-13.86,10.97,2.08,17.79
12.127985954284668,-9.28,10.93,4.13,14.92
12.137797832489014,-3.28,12.8,4.02,13.81
12.148307800292969,1.76,12.93,2.52,13.29
12.178516864776611,1.91,8.74,3.74,9.69
12.180785894393921,-2.38,4.35,4.66,6.8
12.182524919509888,-7.07,1.78,4.24,8.43
12.195811748504639,-10.02,0.23,3.42,10.59
12.198235034942627,-10.9,-0.9,3.47,11.47
12.210218906402588,-8.82,-0.77,5.35,10.34
12.218339920043945,-3.77,0.12,4.13,5.59
12.228416919708252,2.78,-1.44,-1.48,3.46
12.238553047180176,6.76,-3.95,-0.67,7.85
12.249186992645264,1.3,-4.03,1.67,4.55
12.281445980072021,-5.12,-3.74,2.0,6.64
12.28391981124878,-7.59,-5.57,2.06,9.63
12.285595893859863,-9.07,-7.19,1.13,11.62
12.29441785812378,-10.25,-6.78,-0.26,12.29
12.298235893249512,-9.32,-4.97,-0.99,10.6
12.312741756439209,-6.1,-4.04,-1.0,7.38
12.31853985786438,-4.57,-3.6,-0.84,5.87
12.328709840774536,-3.92,-3.54,-0.64,5.32
12.33943796157837,-3.49,-3.93,-0.42,5.27
12.349081993103027,-3.34,-4.08,-0.4,5.28
12.378448963165283,-3.24,-3.87,-0.45,5.06
12.380172729492188,-3.24,-3.46,-0.32,4.75
12.381188869476318,-3.31,-2.72,-0.35,4.29
12.395410060882568,-3.29,-1.93,-0.22,3.82
12.398749828338623,-3.06,-1.05,0.32,3.25
12.410533905029297,-2.76,-0.16,0.91,2.91
12.419909000396729,-2.44,0.67,1.15,2.77
12.429595947265625,-1.92,1.68,0.91,2.7
12.439828872680664,-0.99,2.85,0.22,3.02
12.450121879577637,0.49,3.98,-0.89,4.1
12.480867862701416,2.19,4.96,-2.04,5.79
12.483450889587402,3.77,5.83,-2.95,7.54
12.485111713409424,5.14,6.67,-3.27,9.03
12.494682788848877,5.79,7.33,-3.72,10.05
12.499352931976318,6.62,8.6,-3.86,11.51
12.509871006011963,7.25,8.55,-3.49,11.74
12.51979684829712,7.23,7.92,-3.07,11.15
12.530243873596191,7.96,8.25,-1.92,11.62
12.542123794555664,8.59,8.38,-1.11,12.05
12.55074405670166,9.88,8.16,-1.82,12.94
12.578499794006348,11.44,6.65,-2.78,13.52
12.580852031707764,13.78,3.98,-2.33,14.53
12.582574844360352,13.25,1.64,-2.33,13.55
12.595371723175049,12.7,2.22,-1.77,13.01
12.600165843963623,12.39,2.24,0.86,12.62
12.610618829727173,11.43,2.21,2.91,11.99
12.620709896087646,10.29,2.4,0.7,10.58
12.63079285621643,9.24,2.95,-0.12,9.7
12.641502857208252,8.46,1.55,1.16,8.67
12.651268005371094,9.14,-0.95,-2.59,9.54
12.682469844818115,5.78,-0.21,-9.87,11.43
12.684674739837646,-3.83,2.58,-9.4,10.47
12.686262845993042,-12.88,8.02,-2.4,15.36
12.69424295425415,-12.63,13.35,-0.55,18.38
12.701143741607666,-0.83,12.22,4.2,12.94
12.711030006408691,6.7,9.54,13.17,17.58
12.721006870269775,12.86,4.57,0.48,13.65
12.731475830078125,18.45,0.29,-11.16,21.56
12.741415977478027,9.98,-2.2,-4.25,11.06
12.751770973205566,-1.4,-2.41,5.74,6.38
12.781181812286377,-5.82,-2.78,12.59,14.14
12.783844947814941,-8.98,-2.07,6.71,11.39
12.785516738891602,-6.79,0.94,-6.31,9.31
12.794554710388184,2.91,0.3,-2.5,3.84
12.801553726196289,8.07,-0.68,1.59,8.25
12.811851978302002,7.44,-0.18,-0.65,7.47
12.822526931762695,3.04,0.16,-1.5,3.39
12.832098960876465,-1.38,0.36,-0.45,1.49
12.842121839523315,-3.82,0.55,0.17,3.86
12.852418899536133,-2.94,0.06,0.75,3.03
12.884634971618652,-0.18,-0.62,1.01,1.19
12.886936902999878,1.33,-0.76,0.44,1.59
12.888631820678711,1.2,-0.54,0.35,1.36
12.894261837005615,0.56,-0.31,0.71,0.95
12.90166687965393,-0.01,-0.15,0.62,0.63
12.912395000457764,-0.37,0.03,-0.2,0.42
12.922904968261719,-0.39,0.11,-0.49,0.63
12.932678937911987,-0.32,0.11,0.01,0.33
12.943224906921387,-0.37,0.07,0.26,0.45
12.953367710113525,-0.65,0.02,0.31,0.72
12.98439073562622,-0.98,-0.02,0.3,1.02
12.986327886581421,-0.98,-0.04,0.42,1.06
12.987409830093384,-0.82,0.05,0.41,0.91
12.994140863418579,-0.67,0.14,0.25,0.72
13.002634048461914,-0.56,0.15,0.39,0.69
13.013078927993774,-0.52,0.12,0.46,0.7
13.023176908493042,-0.46,0.24,0.4,0.65
13.033269882202148,-0.4,0.3,0.29,0.57
13.043300867080688,-0.37,0.27,0.31,0.55
13.053729057312012,-0.42,0.28,0.49,0.7
13.085413932800293,-0.66,0.38,0.61,0.97
13.087474822998047,-0.85,0.49,0.77,1.24
13.08876371383667,-0.98,0.51,0.77,1.34
13.094231843948364,-1.14,0.48,0.68,1.41
13.103240966796875,-1.29,0.47,0.63,1.51
13.113178730010986,-1.29,0.49,0.22,1.39
13.12375783920288,-1.36,0.61,0.25,1.51
13.13390588760376,-1.47,0.76,0.13,1.65
13.143939971923828,-1.45,0.86,-0.26,1.7
13.154541015625,-1.39,1.29,-0.5,1.96
13.186689853668213,-1.51,1.59,-0.25,2.2
13.188885927200317,-1.7,1.83,-0.31,2.51
13.190558910369873,-1.74,1.9,-0.33,2.59
13.193860054016113,-1.76,1.97,-0.21,2.65
13.209583759307861,-1.94,2.08,-0.11,2.84
13.213639736175537,-2.33,2.3,0.0,3.27
13.225815773010254,-2.94,2.85,0.17,4.09
13.234163761138916,-3.83,3.4,0.43,5.13
13.244792938232422,-4.83,3.88,0.49,6.21
13.25494384765625,-5.74,4.51,0.17,7.3
13.285347938537598,-6.4,5.02,-0.36,8.14
13.28745985031128,-6.87,5.56,-1.02,8.89
13.289208889007568,-7.56,6.31,-1.5,9.96
13.294477939605713,-8.83,6.64,-1.91,11.21
13.304560899734497,-9.84,6.94,-2.09,12.22
13.314411878585815,-10.09,7.66,-1.93,12.81
13.325052738189697,-14.3,8.24,-1.47,16.56
13.3349928855896,-16.34,8.11,0.26,18.24
13.345172882080078,-15.8,9.17,1.75,18.35
13.3555748462677,-9.84,9.27,3.94,14.08
13.385818004608154,-2.02,10.93,4.12,11.85
13.387630939483643,5.93,12.04,2.71,13.69
13.3888099193573,7.22,8.04,5.49,12.12
13.394639015197754,1.45,3.87,6.82,7.97
13.405043840408325,-4.88,1.19,5.32,7.31
13.415435791015625,-8.76,-0.72,4.35,9.8
13.425328731536865,-10.01,-2.39,3.67,10.92
13.435746908187866,-9.33,-3.05,4.9,10.97
13.445720911026001,-5.99,-1.37,6.19,8.72
13.45636796951294,-1.09,-1.13,1.5,2.17
13.486630916595459,5.15,-3.46,-2.12,6.55
13.488715887069702,6.86,-4.95,0.45,8.47
13.489853858947754,-0.12,-4.1,2.17,4.64
13.495259761810303,-5.46,-4.33,2.92,7.55
13.509870052337646,-7.21,-6.37,3.32,10.17
13.515777826309204,-8.42,-7.89,2.16,11.73
13.526158809661865,-9.35,-7.1,0.18,11.74
13.536658763885498,-8.16,-4.78,-0.89,9.49
13.54630184173584,-5.08,-3.54,-0.98,6.26
13.557801723480225,-3.53,-3.22,-0.71,4.83
13.58593487739563,-3.09,-3.28,-0.21,4.51
13.588027954101562,-3.06,-3.54,0.3,4.68
13.589711904525757,-3.11,-3.8,0.44,4.93
13.596144914627075,-3.21,-3.73,0.26,4.92
13.609911918640137,-3.12,-3.34,0.09,4.57
13.616118907928467,-3.08,-2.58,0.05,4.01
13.626417875289917,-2.98,-1.55,0.12,3.36
13.636408805847168,-2.59,-0.4,0.52,2.67
13.64681887626648,-1.88,0.6,1.1,2.25
13.65732192993164,-0.89,1.34,1.36,2.1
13.687070846557617,0.16,1.82,1.02,2.09
13.689172744750977,1.25,2.43,0.39,2.76
13.690902709960938,2.37,3.33,-0.42,4.1
13.696578979492188,3.44,4.26,-1.2,5.6
13.710001945495605,4.24,4.9,-1.69,6.69
13.717233896255493,4.76,5.56,-1.72,7.51
13.727279901504517,4.86,5.74,-1.75,7.72
13.7375328540802,4.57,5.96,-1.6,7.67
13.74760890007019,4.21,6.84,-1.49,8.16
13.757787942886353,3.98,7.25,-1.44,8.39
13.788387775421143,4.61,7.69,-1.11,9.03
13.79049301147461,6.25,7.45,-0.73,9.75
13.792239904403687,8.26,6.97,-0.6,10.82
13.796969890594482,9.35,6.28,-0.43,11.27
13.807289838790894,9.64,5.03,0.22,10.87
13.817540884017944,9.01,3.73,0.47,9.76
13.827882766723633,8.76,3.15,-0.52,9.32
13.838234901428223,9.06,2.2,-0.34,9.32
13.848253726959229,9.25,1.51,0.91,9.41
13.85841703414917,8.99,1.81,-0.15,9.17
13.888170719146729,9.47,1.4,-1.2,9.64
13.890305995941162,11.14,0.69,-1.5,11.26
13.892031908035278,12.32,1.29,-1.55,12.48
13.89783787727356,12.02,0.59,-3.11,12.42
13.907795906066895,10.38,0.87,-7.45,12.8
13.91852593421936,2.41,0.4,-10.75,11.02
13.928415775299072,-8.92,3.05,-9.45,13.34
13.938815832138062,-15.69,11.58,-6.56,20.57
13.948678016662598,-10.43,9.87,-1.16,14.4
13.95956802368164,-0.37,6.23,4.29,7.57
13.991460800170898,3.76,11.03,11.82,16.59
13.994012832641602,8.91,10.17,1.18,13.57
13.995775938034058,14.96,2.39,-10.47,18.41
14.01426076889038,8.49,-5.23,-1.39,10.06
14.016018867492676,-1.61,-5.72,7.38,9.47
14.027822017669678,-4.36,-5.23,12.5,14.23
14.030366897583008,-4.52,-3.17,6.99,8.9
14.042857885360718,0.41,-0.22,-4.94,4.96
14.049266815185547,5.83,2.09,-6.87,9.24
14.059783935546875,7.82,2.61,-1.77,8.43
14.08840274810791,5.29,1.52,0.2,5.5
14.09045696258545,1.02,0.13,-1.27,1.63
14.091536045074463,-1.71,-0.37,-1.73,2.46
14.09875774383545,-2.04,-0.51,0.07,2.1
14.109381914138794,-0.81,-0.56,1.75,2.0
14.119714736938477,0.07,-0.29,1.65,1.67
14.129913806915283,0.01,-0.12,1.3,1.3
14.1402907371521,-0.28,-0.32,1.37,1.43
14.150006771087646,-0.52,-0.47,1.48,1.63
14.16080093383789,-0.71,-0.41,1.03,1.31
14.19220495223999,-0.77,-0.19,0.34,0.86
14.194275856018066,-0.7,-0.02,0.12,0.71
14.196033000946045,-0.63,-0.07,0.25,0.68
14.214745998382568,-0.7,-0.16,0.31,0.78
14.21648383140564,-0.94,-0.17,0.28,0.99
14.22658085823059,-1.33,0.05,0.1,1.33
14.23026180267334,-1.62,0.46,-0.05,1.68
14.243132829666138,-1.55,0.65,-0.23,1.69
14.251094818115234,-1.06,0.48,0.07,1.16
14.260594844818115,-0.43,0.18,0.15,0.48
14.290932893753052,0.63,0.06,0.14,0.64
14.292602062225342,0.66,-0.27,0.52,0.88
14.293730735778809,-0.25,-0.1,0.53,0.59
14.317823886871338,-1.11,0.29,0.48,1.24
14.31970500946045,-1.22,0.32,0.42,1.32
14.326220035552979,-0.8,0.29,0.4,0.94
14.33041787147522,-0.49,0.28,0.45,0.72
14.342392921447754,-0.44,0.14,0.46,0.65
14.35088586807251,-0.61,0.07,0.5,0.79
14.361297845840454,-0.48,-0.01,0.45,0.65
14.389106750488281,-0.34,-0.07,0.43,0.55
14.390781879425049,-0.26,0.01,0.02,0.26
14.391923904418945,-0.34,0.34,0.19,0.51
14.401036739349365,-0.69,0.55,0.22,0.9
14.41130781173706,-0.98,0.7,0.0,1.2
14.421783924102783,-1.1,0.84,0.19,1.39
14.432163715362549,-1.08,0.71,0.1,1.29
14.44217300415039,-0.88,0.82,-0.11,1.2
14.451820850372314,-0.96,1.12,0.09,1.47
14.46218991279602,-1.42,1.27,0.37,1.94
14.495090961456299,-1.81,1.2,0.32,2.19
14.497391939163208,-2.07,1.62,0.52,2.67
14.499137878417969,-2.43,2.17,0.8,3.35
14.512768745422363,-2.92,2.6,0.94,4.02
14.514448881149292,-3.47,2.97,0.66,4.61
14.527677059173584,-3.89,3.31,0.14,5.1
14.531957864761353,-4.02,3.65,-0.42,5.44
14.543664932250977,-3.99,3.72,-0.82,5.51
14.552202939987183,-4.04,3.94,-1.28,5.78
14.562481880187988,-4.42,4.71,-1.17,6.56
14.594351768493652,-5.54,5.17,-0.71,7.61
14.596471786499023,-7.29,5.25,-0.46,8.99
14.59791898727417,-8.76,6.09,-0.69,10.69
14.614748001098633,-8.39,7.3,-0.75,11.14
14.616456031799316,-10.17,8.06,-0.53,12.98
14.627254009246826,-13.9,9.07,-0.11,16.59
14.63254690170288,-15.49,9.93,0.72,18.41
14.643374919891357,-15.1,10.04,1.52,18.19
14.652670860290527,-9.02,8.27,3.61,12.75
14.663338899612427,-2.14,8.91,2.74,9.56
14.69154405593872,3.24,10.66,1.06,11.19
14.693676948547363,3.62,7.99,2.96,9.25
14.695442914962769,-1.12,3.49,5.11,6.28
14.713728904724121,-6.68,0.58,5.14,8.44
14.71440601348877,-9.93,-1.28,4.13,10.83
14.727795839309692,-10.73,-3.16,4.23,11.95
14.733256816864014,-8.4,-3.52,4.97,10.37
14.743735790252686,-4.26,-1.12,4.26,6.12
14.753695011138916,1.03,-1.11,-0.96,1.79
14.763690948486328,5.82,-3.47,-2.03,7.07
14.794566869735718,3.48,-4.1,0.67,5.41
14.796841859817505,-3.62,-3.56,1.49,5.29
14.798308849334717,-6.91,-5.17,2.21,8.9
14.814682960510254,-8.7,-7.02,2.71,11.5
14.816486835479736,-10.21,-7.18,2.15,12.66
14.827777862548828,-10.5,-5.52,1.36,11.94
14.833809852600098,-7.44,-4.38,0.64,8.65
14.844478845596313,-4.69,-3.7,0.21,5.97
14.854036808013916,-3.3,-3.14,0.21,4.56
14.864183902740479,-2.42,-2.93,0.38,3.81
14.89441990852356,-2.56,-2.85,0.55,3.87
14.896738052368164,-3.33,-2.71,0.73,4.35
14.898520946502686,-4.12,-2.38,1.05,4.87
14.913571834564209,-4.16,-1.59,0.63,4.49
14.915390014648438,-3.12,-0.55,0.17,3.17
14.926366806030273,-1.51,0.44,-0.02,1.57
14.934083938598633,-0.24,1.28,-0.54,1.4
14.944622039794922,0.58,1.89,-1.27,2.34
14.954553842544556,1.14,2.39,-1.63,3.1
14.965178966522217,1.79,2.9,-1.9,3.9
14.995268821716309,2.74,3.29,-2.37,4.89
14.997796058654785,3.7,3.62,-2.75,5.86
14.99945592880249,4.35,3.94,-2.99,6.58
15.012760877609253,4.6,4.25,-3.06,6.97
15.014514923095703,4.64,4.66,-2.67,7.09
15.028903007507324,4.53,4.95,-2.41,7.12
15.035071849822998,4.38,5.35,-2.2,7.25
15.045439720153809,4.37,5.92,-1.99,7.62
15.05544900894165,5.09,7.07,-1.48,8.83
15.065616846084595,5.98,6.88,-0.83,9.15
15.096685886383057,7.62,5.39,-0.5,9.34
15.098958969116211,9.63,4.35,-1.24,10.63
15.100742816925049,11.17,4.55,-1.66,12.17
15.114694833755493,11.46,4.08,0.6,12.17
15.116304874420166,10.52,3.36,2.76,11.38
15.128009796142578,8.78,2.91,0.88,9.29
15.135970830917358,7.26,2.97,0.09,7.84
15.146065711975098,7.93,2.43,2.5,8.66
15.156654834747314,9.93,0.98,2.62,10.31
15.166756868362427,11.02,1.03,0.01,11.06
15.197924852371216,10.81,1.31,-1.35,10.97
15.200119018554688,10.93,1.06,-3.7,11.58
15.201298713684082,6.87,0.72,-9.13,11.44
15.212445735931396,-3.61,4.09,-9.17,10.67
15.215719938278198,-12.39,10.63,0.36,16.32
15.22870397567749,-11.21,13.01,3.0,17.43
15.235933780670166,0.96,5.53,1.83,5.9
15.246298789978027,5.44,6.08,4.15,9.15
15.257132053375244,6.99,6.61,6.7,11.72
15.26686692237854,11.18,1.68,-1.9,11.46
15.29688286781311,11.36,-2.5,-2.32,11.86
15.298781871795654,2.72,-4.2,3.45,6.07
15.299957752227783,-2.77,-3.35,5.68,7.15
15.31473684310913,-3.12,-1.39,3.8,5.1
15.316693782806396,-1.17,0.86,-2.52,2.9
15.327448844909668,2.62,2.35,-5.95,6.91
15.336714744567871,5.8,2.3,-3.98,7.4
15.3471839427948,6.04,1.15,-1.57,6.34
15.357329845428467,3.64,-0.3,-0.04,3.65
15.367650032043457,0.85,-1.13,1.03,1.74
15.398254871368408,-1.04,-1.02,1.74,2.26
15.400464057922363,-1.58,-0.36,2.31,2.82
15.4021577835083,-1.19,0.09,2.52,2.78
15.413709878921509,-0.87,0.14,1.94,2.13
15.416980743408203,-1.1,0.03,0.93,1.44
15.427834033966064,-1.28,-0.16,0.43,1.35
15.437747955322266,-1.17,-0.18,0.32,1.22
15.447502851486206,-0.98,-0.06,0.31,1.02
15.458016872406006,-1.05,-0.01,0.35,1.1
15.46773099899292,-1.31,0.0,0.57,1.42
15.497381925582886,-1.52,-0.05,0.74,1.69
15.499047756195068,-1.44,-0.18,0.7,1.61
15.50017786026001,-0.98,-0.29,0.65,1.21
15.514280796051025,-0.31,-0.31,0.5,0.66
15.517364025115967,0.12,-0.18,0.23,0.31
15.528266906738281,0.01,0.03,0.21,0.21
15.538188934326172,-0.42,0.03,0.28,0.5
15.548188924789429,-0.55,0.14,0.28,0.63
15.558831930160522,-0.18,-0.02,0.45,0.48
15.568933010101318,0.05,-0.2,0.37,0.42
15.602226734161377,0.1,-0.13,0.38,0.41
15.604354858398438,-0.24,0.06,0.38,0.45
15.606026887893677,-0.72,0.49,0.27,0.91
15.611626863479614,-0.9,0.58,0.42,1.15
15.617831707000732,-1.0,0.39,0.49,1.17
15.628347873687744,-0.79,0.29,0.52,0.98
15.638560771942139,-0.54,0.26,0.6,0.84
15.648829936981201,-0.42,0.24,0.54,0.72
15.65926194190979,-0.6,0.35,0.48,0.84
15.668989896774292,-1.05,0.39,0.73,1.33
15.698583841323853,-1.42,0.37,1.06,1.81
15.700341939926147,-1.54,0.31,0.99,1.85
15.701464891433716,-1.53,0.37,1.15,1.94
15.713607788085938,-1.68,0.43,1.19,2.1
15.718775749206543,-1.85,0.74,0.92,2.19
15.72986388206482,-2.04,1.2,0.8,2.49
15.739716053009033,-2.0,1.58,0.63,2.62
15.74957275390625,-1.9,2.08,0.05,2.81
15.759779930114746,-1.96,2.3,0.04,3.02
15.770242929458618,-2.4,2.54,-0.17,3.49
15.801797866821289,-2.95,3.02,0.12,4.22
15.804038047790527,-3.51,3.38,0.28,4.88
15.805685043334961,-3.96,3.82,0.28,5.5
15.812166929244995,-4.25,4.23,0.42,6.01
15.819593906402588,-4.74,4.97,0.26,6.87
15.829813957214355,-5.23,5.72,-0.08,7.75
15.8399019241333,-5.97,5.86,-0.47,8.37
15.850393772125244,-6.75,5.75,-0.78,8.9
15.860182762145996,-7.64,6.35,-0.88,9.97
15.870689868927002,-8.73,7.5,-0.65,11.52
15.902330875396729,-8.22,8.47,0.09,11.8
15.90483283996582,-11.15,9.85,0.99,14.91
15.906538963317871,-13.3,10.13,2.69,16.93
15.911945819854736,-12.99,8.02,4.28,15.85
15.919931888580322,-9.85,6.83,6.83,13.79
15.930222988128662,-4.75,10.76,3.07,12.15
15.940821886062622,2.52,9.71,1.21,10.1
15.950639724731445,4.56,4.36,3.92,7.42
15.960869789123535,-0.06,1.38,5.13,5.31
15.97125792503357,-5.86,0.67,4.19,7.23
16.001147747039795,-9.24,0.04,3.48,9.87
16.003487825393677,-9.32,-1.51,4.31,10.37
16.005168914794922,-6.03,-2.52,6.55,9.25
16.0117449760437,-1.23,-2.92,4.55,5.54
16.020827770233154,2.45,-4.01,1.11,4.82
16.031385898590088,1.4,-4.57,0.45,4.8
16.04139804840088,-4.62,-3.62,0.21,5.87
16.051177978515625,-8.26,-3.95,-0.16,9.15
16.061628818511963,-9.82,-4.66,-0.24,10.87
16.071660041809082,-8.66,-4.99,-0.04,9.99
16.102211952209473,-5.25,-4.99,-0.05,7.24
16.104393005371094,-2.42,-4.6,-0.4,5.21
16.106169939041138,-1.39,-4.16,-0.77,4.45
16.11190176010132,-1.86,-3.97,-0.64,4.43
16.121450901031494,-2.82,-3.94,-0.19,4.84
16.131475925445557,-3.27,-3.92,0.27,5.11
16.142253875732422,-3.36,-3.86,0.76,5.17
16.151776790618896,-3.53,-3.51,0.9,5.05
16.162123918533325,-3.93,-2.66,0.97,4.84
16.17193293571472,-3.93,-1.62,1.36,4.46
16.202818870544434,-3.46,-0.7,2.03,4.07
16.205123901367188,-2.68,-0.03,2.54,3.69
16.2069149017334,-1.72,0.45,2.41,2.99
16.21198582649231,-0.84,0.89,1.86,2.22
16.222043991088867,-0.11,1.54,1.12,1.9
16.231870889663696,0.66,2.41,0.39,2.52
16.242921829223633,1.34,3.16,-0.26,3.44
16.252700805664062,1.85,3.64,-0.57,4.12
16.263071060180664,2.12,4.09,-0.55,4.63
16.272642850875854,2.26,4.67,-0.52,5.21
16.30689287185669,2.39,5.46,-0.71,6.0
16.310434818267822,2.62,6.33,-1.08,6.93
16.312639713287354,3.24,7.37,-1.27,8.15
16.314700841903687,4.29,7.89,-1.19,9.05
16.322319984436035,5.5,8.03,-0.5,9.74
16.332485914230347,6.66,6.84,0.1,9.54
16.342730045318604,7.37,4.92,-0.73,8.89
16.35281491279602,8.44,4.71,-2.45,9.97
16.363067865371704,9.72,4.55,-3.17,11.19
16.373770713806152,10.24,3.34,-0.42,10.77
16.401572942733765,10.55,2.37,0.91,10.85
16.40305805206299,10.43,1.8,-1.61,10.7
16.404222011566162,10.29,1.96,-3.44,11.02
16.412818908691406,10.78,1.67,-1.92,11.07
16.423322916030884,11.72,0.86,-1.51,11.84
16.43315887451172,11.78,1.21,-2.71,12.14
16.44371485710144,10.63,1.09,-2.84,11.05
16.45380401611328,9.73,1.68,-4.16,10.71
16.463955879211426,5.68,2.74,-5.7,8.5
16.474154949188232,-2.41,3.81,-5.76,7.31
16.504734992980957,-10.64,8.55,0.81,13.67
16.507128715515137,-10.97,12.38,3.74,16.95
16.50868272781372,-1.25,8.72,3.22,9.37
16.513442039489746,4.21,9.89,8.21,13.52
16.527928829193115,7.49,7.88,3.88,11.54
16.533676862716675,13.41,1.19,-8.04,15.68
16.544538021087646,9.53,-4.95,-2.25,10.97
16.554642915725708,0.6,-6.32,4.37,7.7
16.56451392173767,-1.95,-4.14,7.26,8.58
16.574920892715454,-1.89,-1.6,4.67,5.28
16.60624074935913,-0.94,1.01,-2.34,2.71
16.608572959899902,2.19,2.29,-4.81,5.75
16.611083984375,4.61,2.25,-2.74,5.81
16.6146240234375,4.82,1.19,-1.02,5.06
16.624417781829834,3.52,-0.48,-0.31,3.56
16.6347758769989,1.88,-1.37,0.13,2.32
16.644752979278564,0.63,-1.19,0.49,1.43
16.654850959777832,-0.11,-0.41,0.63,0.75
16.665016889572144,-0.4,0.35,0.56,0.77
16.675509929656982,-0.48,0.64,0.46,0.92
16.70633602142334,-0.58,0.42,0.43,0.83
16.708574771881104,-0.52,-0.04,0.3,0.6
16.70989179611206,-0.21,-0.34,0.31,0.5
16.71457004547119,0.17,-0.35,0.49,0.62
16.72495174407959,0.21,-0.17,0.53,0.59
16.73536205291748,-0.32,0.07,0.52,0.61
16.745473861694336,-0.93,0.15,0.59,1.11
16.755470752716064,-1.15,0.11,0.72,1.36
16.765822887420654,-1.17,0.01,0.68,1.35
16.776119709014893,-1.23,-0.04,0.46,1.31
16.808385848999023,-1.28,0.01,0.39,1.33
16.810304880142212,-1.36,-0.01,0.54,1.46
16.811996936798096,-1.26,0.1,0.4,1.32
16.831740856170654,-0.84,-0.03,0.34,0.9
16.834174871444702,-0.54,-0.2,0.47,0.74
16.846128940582275,-0.46,-0.06,0.38,0.59
16.84903883934021,-0.29,0.3,0.22,0.47
16.860607862472534,-0.12,0.38,0.36,0.53
16.866233825683594,-0.2,0.19,0.52,0.58
16.87769389152527,-0.52,0.03,0.66,0.84
16.90671396255493,-0.79,0.07,0.53,0.95
16.908817768096924,-0.94,0.2,0.36,1.02
16.90992283821106,-0.93,0.33,0.33,1.04
16.915730953216553,-0.8,0.37,0.37,0.95
16.926054000854492,-0.71,0.43,0.46,0.94
16.936774730682373,-0.89,0.52,0.73,1.26
16.946431875228882,-1.13,0.54,0.73,1.44
16.95703387260437,-1.31,0.62,0.67,1.59
16.966964721679688,-1.29,0.77,0.87,1.73
16.977306842803955,-1.27,0.82,0.81,1.71
17.00981378555298,-1.04,1.09,0.49,1.58
17.012224912643433,-0.82,1.56,-0.16,1.76
17.013887882232666,-0.96,1.96,-0.58,2.25
17.03195095062256,-1.44,1.93,-0.98,2.59
17.034371852874756,-1.73,2.13,-0.94,2.9
17.045658826828003,-2.23,2.7,-0.37,3.52
17.048624992370605,-3.24,3.17,0.3,4.54
17.061216831207275,-4.32,3.4,0.43,5.51
17.067383766174316,-4.92,3.61,0.07,6.1
17.078666925430298,-4.98,3.81,-0.6,6.29
17.110517978668213,-4.95,4.2,-1.38,6.63
17.11261487007141,-4.75,4.44,-2.09,6.82
17.114091873168945,-4.31,4.47,-2.21,6.59
17.131451845169067,-4.54,4.81,-1.77,6.84
17.133160829544067,-5.76,4.94,-0.88,7.63
17.145298957824707,-7.6,4.67,-0.03,8.92
17.148111820220947,-9.16,4.79,0.46,10.34
17.160899877548218,-8.97,5.25,1.14,10.45
17.16788101196289,-9.99,6.2,1.54,11.85
17.17825698852539,-13.07,7.37,2.01,15.13
17.204587936401367,-13.31,8.05,2.59,15.76
17.20691204071045,-7.74,8.31,2.23,11.57
17.208533763885498,-0.86,8.11,2.01,8.39
17.21798586845398,1.97,7.93,4.47,9.31
17.228242874145508,-0.5,8.5,4.63,9.69
17.238219738006592,-4.64,6.23,5.41,9.46
17.24830675125122,-7.33,3.17,5.73,9.82
17.259299755096436,-8.37,0.89,5.04,9.81
17.269283771514893,-8.75,-0.48,4.38,9.79
17.279658794403076,-8.05,-1.2,4.22,9.16
17.309424877166748,-5.19,-0.76,4.49,6.9
17.31154489517212,-0.61,0.59,3.12,3.23
17.313366889953613,5.24,-1.15,-0.06,5.36
17.33219575881958,6.94,-2.85,0.79,7.54
17.334085941314697,-0.01,-2.24,2.52,3.37
17.34563398361206,-5.17,-2.99,3.09,6.72
17.3491849899292,-7.62,-5.08,2.79,9.57
17.362918853759766,-9.74,-6.56,1.7,11.86
17.369658946990967,-11.26,-5.83,0.84,12.7
17.379422903060913,-10.57,-3.89,0.64,11.28
17.40522789955139,-6.8,-3.25,0.92,7.59
17.407501935958862,-4.68,-2.83,0.89,5.54
17.40880584716797,-3.51,-2.52,0.61,4.36
17.418900966644287,-2.63,-2.36,0.1,3.53
17.429625988006592,-2.47,-2.16,-0.33,3.29
17.43954586982727,-2.65,-1.97,-0.33,3.31
17.44957399368286,-2.84,-1.69,-0.15,3.3
17.460394859313965,-3.02,-1.18,-0.22,3.24
17.46983003616333,-2.79,-0.52,-0.22,2.84
17.480408906936646,-2.1,-0.12,0.04,2.1
17.511709928512573,-1.26,0.02,0.39,1.31
17.514245986938477,-0.41,0.03,0.51,0.65
17.516028881072998,0.26,0.34,0.36,0.55
17.533076763153076,0.73,1.19,-0.16,1.4
17.535703897476196,1.37,2.16,-0.97,2.73
17.54592990875244,2.3,3.02,-1.53,4.09
17.55042600631714,3.32,3.55,-1.61,5.12
17.56145191192627,4.15,4.18,-1.24,6.01
17.570552825927734,4.47,5.17,-0.97,6.9
17.581023931503296,4.77,6.79,-1.3,8.39
17.611921787261963,5.47,7.98,-1.86,9.85
17.614094734191895,6.63,8.63,-1.93,11.05
17.61546802520752,8.84,8.73,-0.89,12.45
17.63354992866516,11.74,8.21,0.05,14.32
17.635360717773438,13.7,7.01,0.77,15.4
17.64456272125244,13.0,5.41,0.53,14.09
17.65064001083374,10.17,3.83,-0.12,10.86
17.661711931228638,7.93,2.85,-0.82,8.46
17.67117190361023,7.04,2.67,-1.36,7.65
17.68117904663086,8.82,2.0,-0.61,9.06
17.71050500869751,11.04,1.22,-1.34,11.18
17.712450981140137,12.57,0.62,-3.43,13.04
17.713613033294678,13.71,1.42,-4.55,14.51
17.73298978805542,13.55,1.83,-3.31,14.06
17.735468864440918,13.49,0.45,-6.34,14.91
17.745598793029785,5.05,0.96,-8.53,9.95
17.75145387649536,-7.44,3.08,-4.42,9.18
17.761770725250244,-16.66,10.37,0.19,19.62
17.77220106124878,-15.82,14.87,1.63,21.77
17.782461881637573,-3.85,10.7,7.23,13.47
17.813278913497925,3.28,8.72,13.26,16.2
17.815693855285645,8.06,5.56,-1.5,9.9
17.817410945892334,13.95,-2.46,-10.16,17.43
17.830831050872803,13.25,-6.99,0.36,14.98
17.832607746124268,4.38,-5.86,6.51,9.79
17.84516191482544,0.16,-2.75,6.59,7.14
17.851821899414062,-0.81,-0.45,-1.55,1.8
17.862375736236572,0.69,1.81,-6.61,6.88
17.872382879257202,4.16,2.52,-3.48,5.98
17.882441997528076,5.26,1.95,-0.39,5.62
17.916378021240234,3.45,0.13,-0.17,3.45
17.919065952301025,1.09,-1.41,1.36,2.24
17.920723915100098,-0.81,-1.45,2.27,2.81
17.931961059570312,-1.72,-0.41,1.9,2.59
17.934452056884766,-1.13,0.25,1.8,2.13
17.94516372680664,-0.16,0.23,1.04,1.07
17.952603816986084,0.39,0.08,-0.01,0.39
17.963212966918945,0.69,-0.19,-0.4,0.81
17.97285485267639,0.6,-0.2,-0.48,0.79
17.983373880386353,0.26,-0.08,0.13,0.3
18.015981912612915,-0.24,-0.14,0.81,0.85
18.01808500289917,-0.78,-0.17,0.89,1.19
18.019656896591187,-1.04,-0.08,0.89,1.37
18.030399799346924,-1.06,-0.09,0.71,1.27
18.032388925552368,-1.06,-0.23,0.46,1.17
18.04638671875,-1.16,0.01,-0.19,1.17
18.053191900253296,-1.48,0.8,-0.78,1.85
18.063605785369873,-1.78,0.77,-0.4,1.98
18.07379674911499,-1.84,0.18,0.34,1.87
18.084542751312256,-1.13,0.4,0.79,1.43
18.11495876312256,-0.12,0.49,0.65,0.82
18.117068767547607,0.22,0.05,0.9,0.92
18.11852192878723,-0.47,-0.2,1.06,1.17
18.130648851394653,-1.04,0.02,0.87,1.35
18.13328981399536,-1.12,0.12,0.83,1.39
18.146602869033813,-1.03,0.31,0.7,1.28
18.154026985168457,-0.99,0.45,0.46,1.18
18.163898944854736,-0.96,0.47,0.31,1.11
18.17402696609497,-0.83,0.53,0.38,1.05
18.18444585800171,-0.88,0.6,0.4,1.13
18.21271800994873,-1.09,0.67,0.4,1.34
18.214699745178223,-1.38,0.66,0.28,1.55
18.21591281890869,-1.49,0.63,0.21,1.63
18.231648921966553,-1.35,0.71,-0.2,1.53
18.23387885093689,-1.22,0.74,-0.13,1.43
18.246625900268555,-1.55,0.83,-0.22,1.77
18.2544949054718,-1.66,0.96,-0.22,1.93
18.265127897262573,-1.56,1.02,0.16,1.87
18.274977922439575,-1.47,1.04,0.63,1.9
18.284916877746582,-1.47,1.01,1.29,2.2
18.31587290763855,-1.88,1.23,1.44,2.66
18.317991733551025,-2.56,1.79,1.65,3.53
18.31957197189331,-3.34,2.44,1.71,4.47
18.33018684387207,-3.97,3.24,1.38,5.3
18.33453392982483,-4.47,4.01,0.92,6.07
18.34616494178772,-3.58,4.96,0.45,6.13
18.35522174835205,-6.25,5.87,-0.2,8.57
18.365758895874023,-7.84,6.84,-0.07,10.4
18.375475883483887,-7.79,7.18,-0.01,10.59
18.385690927505493,-9.21,7.51,-0.16,11.88
18.412693977355957,-11.42,8.37,0.05,14.15
18.414352893829346,-12.39,9.25,-0.21,15.46
18.41557788848877,-11.36,9.49,0.11,14.8
18.431777000427246,-14.15,10.42,0.51,17.58
18.43546485900879,-14.38,9.7,2.94,17.59
18.446748733520508,-10.42,10.32,5.12,15.53
18.455984830856323,-3.73,13.2,3.91,14.26
18.46597194671631,3.22,10.27,2.81,11.12
18.476197719573975,4.68,5.6,4.27,8.45
18.486499786376953,-0.25,2.55,5.87,6.4
18.518126964569092,-6.57,0.68,5.66,8.69
18.520495891571045,-10.56,-0.9,4.67,11.58
18.522172927856445,-10.76,-2.27,5.22,12.17
18.530298709869385,-6.37,-2.63,5.85,9.03
18.535717964172363,-0.14,-1.99,1.67,2.6
18.54636001586914,6.37,-3.83,-2.35,7.79
18.556383848190308,7.12,-5.52,-1.09,9.07
18.566750049591064,-1.02,-4.24,-0.16,4.36
18.5767240524292,-6.1,-4.67,-0.04,7.68
18.58703374862671,-8.51,-6.61,0.38,10.78
18.6161048412323,-10.4,-7.56,0.6,12.87
18.618592739105225,-10.97,-7.0,0.75,13.03
18.620245933532715,-7.69,-6.26,0.81,9.94
18.631722927093506,-4.28,-5.72,0.4,7.15
18.636308908462524,-2.84,-5.28,-0.13,5.99
18.649785041809082,-2.28,-5.13,-0.24,5.61
18.656428813934326,-3.03,-5.07,-0.01,5.9
18.6669819355011,-3.9,-4.92,0.42,6.29
18.677644729614258,-4.28,-4.4,0.97,6.21
18.68748688697815,-4.07,-3.63,1.16,5.57
18.716572761535645,-3.85,-2.73,1.11,4.84
18.718668937683105,-3.68,-1.58,1.13,4.16
18.71981692314148,-3.39,-0.31,1.45,3.7
18.730814933776855,-2.99,0.8,1.88,3.62
18.736896991729736,-2.55,1.73,2.01,3.67
18.747541904449463,-1.81,2.87,1.55,3.73
18.757510900497437,-0.72,4.15,0.63,4.25
18.767937898635864,0.58,5.3,-0.55,5.35
18.777870893478394,2.05,6.68,-1.52,7.15
18.78824806213379,3.55,7.31,-2.8,8.59
18.818152904510498,5.15,7.9,-3.41,10.02
18.8203067779541,6.45,8.49,-3.67,11.27
18.82200002670288,7.0,8.97,-3.94,12.04
18.830698013305664,7.84,9.69,-4.14,13.13
18.837798833847046,8.76,9.2,-3.43,13.15
18.848424911499023,9.28,7.96,-3.26,12.65
18.85941505432129,9.07,6.79,-2.83,11.67
18.86848783493042,10.41,4.94,-2.13,11.71
18.87839388847351,10.25,2.91,-2.3,10.9
18.888858795166016,9.89,3.24,-2.02,10.6
18.92102885246277,9.98,3.35,-1.21,10.59
18.92362880706787,10.12,3.04,1.6,10.68
18.92535400390625,10.06,2.51,1.37,10.45
18.930675983428955,9.67,2.75,-0.19,10.05
18.938410758972168,9.41,2.74,0.57,9.81
18.948813915252686,9.16,2.11,1.8,9.57
18.95923376083374,8.99,1.14,0.78,9.09
18.968955993652344,9.69,0.32,-2.15,9.93
18.979372024536133,7.02,-0.03,-7.18,10.04
18.98949384689331,-1.64,1.72,-6.55,6.96
19.021338939666748,-9.17,5.15,-1.28,10.59
19.023432731628418,-11.52,9.87,1.78,15.27
19.025120735168457,-3.81,13.82,6.2,15.61
19.030706882476807,7.64,8.71,11.32,16.19
19.039021968841553,15.69,5.83,-8.73,18.87
19.04942488670349,16.92,2.34,-13.71,21.9
19.05977487564087,4.27,-2.41,-6.78,8.36
19.069747924804688,-3.6,-2.55,2.93,5.29
19.079628944396973,-6.61,-3.03,11.02,13.2
19.09037685394287,-9.05,-0.97,8.85,12.69
19.12299871444702,-6.02,1.08,0.85,6.17
19.125202894210815,2.81,-0.41,-1.05,3.02
19.126832962036133,7.26,-1.87,2.87,8.02
19.130079746246338,6.38,-1.38,1.99,6.82
19.146012783050537,2.15,0.73,-2.57,3.42
19.149799823760986,-1.64,1.6,-3.55,4.22
19.161943912506104,-3.22,1.18,-1.1,3.6
19.17029094696045,-2.18,0.21,0.74,2.31
19.180176734924316,-0.3,-0.84,1.43,1.68
19.190167903900146,0.08,-1.14,1.71,2.05
19.22020196914673,-0.6,-0.79,1.93,2.17
19.222259998321533,-0.84,-0.35,2.01,2.2
19.224002838134766,-0.46,0.06,0.51,0.68
19.230681896209717,0.12,0.24,-0.41,0.49
19.24053192138672,0.26,0.11,-0.34,0.44
19.250709056854248,0.07,0.0,-0.17,0.18
19.26094388961792,-0.06,-0.18,0.32,0.37
19.27104377746582,-0.22,-0.21,0.49,0.57
19.28099298477173,-0.47,-0.1,0.65,0.8
19.291298866271973,-0.86,-0.03,0.65,1.07
19.3246488571167,-1.17,-0.04,0.5,1.27
19.32683801651001,-1.13,0.24,0.35,1.2
19.328138828277588,-0.41,0.44,0.21,0.63
19.330418825149536,0.46,0.09,0.39,0.6
19.34026002883911,0.29,-0.12,0.51,0.59
19.350993871688843,-0.34,0.12,0.47,0.59
19.361557960510254,-0.66,0.28,0.48,0.86
19.37168788909912,-0.71,0.39,0.5,0.95
19.381303787231445,-0.66,0.49,0.46,0.94
19.391865730285645,-0.63,0.59,0.43,0.96
19.42313003540039,-0.68,0.63,0.46,1.03
19.425137042999268,-0.91,0.61,0.65,1.27
19.426782846450806,-1.06,0.44,0.55,1.27
19.431299924850464,-1.04,0.48,0.16,1.15
19.44680404663086,-1.03,0.58,-0.63,1.33
19.45170497894287,-1.17,0.75,-0.78,1.59
19.462997913360596,-1.23,0.87,-0.62,1.62
19.472051858901978,-1.25,0.98,-0.28,1.61
19.482068061828613,-1.46,1.17,0.16,1.87
19.49281597137451,-1.72,1.43,0.57,2.3
19.524757862091064,-1.9,1.65,0.83,2.64
19.526704788208008,-1.97,1.82,0.95,2.84
19.527995824813843,-2.03,1.89,0.82,2.89
19.531376838684082,-2.11,2.07,0.34,2.97
19.542123794555664,-2.36,2.33,-0.03,3.31
19.552082061767578,-2.85,2.46,-0.27,3.77
19.56274390220642,-3.35,2.74,-0.38,4.34
19.57292604446411,-3.86,2.99,-0.23,4.88
19.58301591873169,-4.57,3.26,-0.29,5.62
19.59352397918701,-5.34,3.69,-0.45,6.5
19.625600814819336,-5.8,4.23,-0.85,7.22
19.627656936645508,-5.95,4.94,-1.1,7.81
19.629438877105713,-6.7,5.45,-0.92,8.68
19.632396936416626,-8.98,5.56,-0.58,10.57
19.642530918121338,-10.55,5.76,-0.33,12.02
19.652681827545166,-11.71,6.12,-0.31,13.21
19.663774967193604,-14.5,6.94,-0.02,16.07
19.67314577102661,-15.04,8.31,1.59,17.25
19.68350076675415,-11.25,10.18,3.05,15.47
19.693562984466553,-5.16,10.91,3.81,12.65
19.725380897521973,1.64,10.73,2.43,11.12
19.727298736572266,3.84,10.32,5.31,12.22
19.728431940078735,0.23,7.89,7.23,10.7
19.732818841934204,-4.03,4.44,6.22,8.63
19.743064880371094,-6.42,1.4,5.29,8.43
19.753833770751953,-7.27,-1.29,4.7,8.75
19.76363492012024,-7.35,-3.48,4.29,9.19
19.77394199371338,-6.17,-3.83,5.33,9.0
19.78387689590454,-3.14,-1.34,5.16,6.18
19.794164896011353,2.04,-2.31,0.15,3.08
19.826271057128906,6.06,-4.84,-0.68,7.78
19.828112840652466,2.25,-4.95,1.93,5.76
19.829922914505005,-4.86,-4.37,2.73,7.08
19.833425998687744,-7.61,-6.03,3.38,10.28
19.843754768371582,-8.61,-7.91,3.12,12.1
19.85397481918335,-9.25,-7.6,1.37,12.04
19.864251852035522,-7.78,-5.55,-0.17,9.55
19.87469792366028,-4.63,-4.11,-0.62,6.22
19.884426832199097,-2.97,-3.14,-0.51,4.35
19.894879817962646,-2.2,-2.68,-0.24,3.47
19.92635679244995,-2.08,-2.52,-0.01,3.26
19.92818284034729,-2.46,-2.38,0.05,3.42
19.929797887802124,-2.73,-2.21,0.21,3.51
19.949842929840088,-2.58,-1.96,0.37,3.26
19.952388763427734,-2.17,-1.43,0.34,2.62
19.964459896087646,-1.68,-0.58,0.36,1.81
19.967298984527588,-1.11,0.37,0.61,1.31
19.97869086265564,-0.47,0.94,1.09,1.51
19.985037803649902,0.26,1.25,1.15,1.71
19.996129989624023,0.99,1.6,0.68,2.0
20.025232791900635,1.45,2.26,0.03,2.68
20.027225017547607,1.93,2.98,-0.64,3.6
20.028348922729492,2.54,3.4,-0.98,4.35
20.03491187095642,3.03,3.62,-0.99,4.82
20.045207977294922,3.25,3.83,-0.83,5.09
20.055452823638916,3.24,4.28,-0.63,5.4
20.06544303894043,3.08,5.32,-0.74,6.19
20.07609796524048,3.2,6.15,-1.23,7.04
20.08572483062744,3.79,6.75,-1.39,7.86
20.096467971801758,4.58,6.86,-0.95,8.3
20.127991914749146,5.37,6.55,-0.48,8.48
20.13032293319702,6.43,5.36,-0.61,8.39
20.132038831710815,7.7,4.36,-1.48,8.97
20.149632930755615,8.53,4.29,-2.14,9.78
20.15133786201477,8.49,3.63,-0.84,9.27
20.163590908050537,7.99,2.58,0.64,8.42
20.166224002838135,7.49,2.2,-0.58,7.82
20.179441928863525,7.86,2.23,-1.58,8.32
20.18624496459961,9.34,1.95,-0.35,9.54
20.196335792541504,10.82,1.07,0.14,10.87
20.222280979156494,12.13,0.42,-0.86,12.16
20.224303722381592,13.01,0.54,-1.9,13.15
20.22575283050537,11.47,1.95,-2.82,11.97
20.235862731933594,9.98,1.72,-4.17,10.95
20.246245861053467,6.84,1.19,-8.48,10.95
20.25678300857544,-2.35,1.94,-11.02,11.43
20.266613006591797,-12.17,7.54,-4.58,15.03
20.27738094329834,-13.8,11.65,0.3,18.06
20.286818027496338,-3.48,5.25,2.82,6.9
20.297918796539307,2.96,4.25,3.91,6.48
20.32816982269287,4.48,11.19,7.77,14.34
20.329985857009888,9.0,8.13,5.21,13.2
20.331085920333862,14.56,0.02,-4.39,15.2
20.35098385810852,7.22,-4.53,0.21,8.52
20.352738857269287,-2.87,-5.6,5.79,8.55
20.365814924240112,-4.48,-3.16,8.37,10.0
20.369088888168335,-2.61,-1.19,3.17,4.27
20.382417917251587,1.62,0.94,-5.45,5.76
20.387256860733032,5.33,2.75,-6.31,8.7
20.397965908050537,6.81,2.34,-2.56,7.64
20.424441814422607,5.26,0.56,-0.83,5.35
20.4268639087677,2.27,-0.76,-0.32,2.41
20.42824697494507,-0.15,-1.01,0.53,1.15
20.437366008758545,-1.37,-0.67,1.49,2.13
20.447505950927734,-1.55,-0.06,2.12,2.62
20.45785689353943,-1.33,0.28,2.32,2.68
20.46781873703003,-1.3,0.18,2.12,2.49
20.478379726409912,-1.58,-0.13,1.96,2.52
20.4880428314209,-1.94,-0.43,1.85,2.71
20.498676776885986,-2.19,-0.39,1.18,2.51
20.528920888900757,-2.15,-0.08,0.1,2.15
20.5309157371521,-1.63,0.13,-0.34,1.67
20.532647848129272,-0.65,0.08,-0.5,0.82
20.55149483680725,0.19,-0.22,-0.43,0.51
20.5539870262146,0.27,-0.39,-0.03,0.47
20.563424825668335,-0.31,-0.15,0.52,0.62
20.568432807922363,-0.94,0.24,0.61,1.14
20.57997179031372,-1.18,0.17,0.52,1.3
20.588639736175537,-1.02,0.13,0.48,1.13
20.599201917648315,-0.38,0.0,0.31,0.49
20.631794929504395,0.58,-0.12,0.23,0.63
20.633867740631104,0.68,-0.15,0.23,0.73
20.63538694381714,-0.04,0.06,0.3,0.3
20.649497032165527,-0.81,0.26,0.45,0.96
20.650662899017334,-0.97,0.23,0.53,1.12
20.663704872131348,-0.72,0.17,0.6,0.95
20.668686866760254,-0.62,0.24,0.45,0.8
20.682255744934082,-0.63,0.33,0.47,0.85
20.689806938171387,-0.8,0.28,0.42,0.94
20.6993727684021,-0.93,0.24,0.38,1.03
20.726309776306152,-0.91,0.22,0.38,1.01
20.72826385498047,-0.91,0.32,0.5,1.08
20.729928970336914,-1.1,0.53,0.71,1.41
20.73906373977661,-1.37,0.58,0.81,1.69
20.749682903289795,-1.46,0.71,0.73,1.78
20.75967788696289,-1.47,0.93,0.82,1.92
20.769752025604248,-1.34,1.22,0.18,1.82
20.77993893623352,-1.11,1.61,-0.2,1.96
20.789991855621338,-1.17,1.95,-0.21,2.28
20.80050277709961,-1.55,2.22,-0.16,2.71
20.832937717437744,-2.0,2.43,-0.08,3.14
20.83482074737549,-2.44,2.57,-0.08,3.54
20.836334705352783,-2.75,2.51,-0.23,3.73
20.848695755004883,-3.05,2.5,-0.29,3.95
20.850482940673828,-3.56,2.69,-0.22,4.46
20.863252878189087,-4.26,3.0,-0.2,5.21
20.87042474746704,-4.76,3.41,-0.31,5.86
20.880538940429688,-4.79,3.74,-0.38,6.08
20.890639781951904,-5.02,4.29,-0.48,6.62
20.90083074569702,-5.47,4.67,-0.3,7.19
20.93411087989807,-6.17,4.66,-0.36,7.74
20.936221837997437,-7.43,4.9,-0.37,8.9
20.9378879070282,-8.48,5.71,-0.11,10.22
20.948521852493286,-8.08,6.24,0.54,10.22
20.95033073425293,-11.84,6.91,0.45,13.71
20.963929891586304,-13.4,7.41,2.01,15.44
20.970764875411987,-12.54,7.84,3.06,15.1
20.981103897094727,-8.64,8.52,3.65,12.67
20.991269826889038,-3.51,8.71,3.67,10.08
21.00166893005371,2.08,8.55,2.85,9.24
21.03496289253235,3.1,7.71,4.06,9.24
21.036950826644897,-0.99,5.51,4.95,7.47
21.03855800628662,-5.12,3.19,4.52,7.53
21.04783296585083,-7.3,0.53,4.31,8.49
21.05087184906006,-7.46,-1.16,3.48,8.31
21.06372880935669,-6.22,-2.12,2.25,6.94
21.071496963500977,-4.29,-1.92,2.76,5.45
21.081850051879883,-0.66,-0.2,2.48,2.57
21.092148780822754,3.98,-2.14,-0.24,4.52
21.102386951446533,4.09,-3.64,1.23,5.61
21.13258385658264,-2.1,-2.99,2.31,4.32
21.134175777435303,-6.4,-3.79,2.49,7.84
21.135347843170166,-8.75,-5.53,2.52,10.65
21.15160083770752,-9.88,-6.06,1.63,11.7
21.15359091758728,-10.03,-4.54,0.46,11.01
21.164291858673096,-7.66,-3.13,0.01,8.27
21.172317028045654,-5.29,-2.48,-0.12,5.84
21.182296752929688,-3.92,-2.1,-0.15,4.44
21.192347049713135,-3.19,-2.02,-0.06,3.77
21.203030824661255,-3.0,-2.26,0.18,3.76
21.23587393760681,-3.15,-2.45,0.67,4.04
21.23805284500122,-3.41,-2.45,0.98,4.31
21.239486932754517,-3.61,-2.02,1.0,4.25
21.24173092842102,-3.06,-1.28,0.9,3.43
21.2523250579834,-2.1,-0.59,0.99,2.39
21.26246690750122,-1.27,-0.02,0.94,1.58
21.27267599105835,-0.58,0.35,0.6,0.9
21.283278942108154,-0.03,0.57,0.21,0.6
21.29326105117798,0.59,0.98,-0.19,1.15
21.303020000457764,1.48,1.58,-0.83,2.31
21.3333740234375,2.5,2.23,-1.47,3.65
21.335680961608887,3.39,2.83,-1.87,4.79
21.33726191520691,4.05,3.29,-2.04,5.6
21.348322868347168,4.45,3.7,-2.15,6.17
21.35271692276001,4.64,4.48,-2.08,6.77
21.365142822265625,4.64,5.42,-2.29,7.49
21.373791933059692,4.66,6.38,-1.95,8.13
21.383652925491333,5.5,6.96,-1.33,8.96
21.39403772354126,7.69,7.47,-0.79,10.74
21.403435707092285,9.19,6.9,-0.64,11.5
21.430778980255127,9.82,6.31,-0.11,11.67
21.4323787689209,9.41,5.75,0.99,11.07
21.433536052703857,8.49,4.91,1.87,9.98
21.451474905014038,7.4,3.85,2.31,8.65
21.453609943389893,6.96,3.41,1.94,7.98
21.464804887771606,7.97,2.99,1.49,8.64
21.474037885665894,9.72,2.3,1.98,10.18
21.484018802642822,10.36,1.69,1.66,10.62
21.49458074569702,10.48,1.42,-0.01,10.57
21.504434823989868,10.34,2.3,-1.24,10.66
21.534401893615723,11.65,1.74,-2.32,12.0
21.536059856414795,12.95,0.42,-6.28,14.39
21.537184715270996,7.07,0.94,-10.81,12.95
21.551098823547363,-4.12,4.12,-7.79,9.72
21.553911924362183,-10.7,7.97,-0.15,13.34
21.565261840820312,-9.75,9.36,4.77,14.33
21.575126886367798,-0.81,7.7,4.99,9.21
21.58474087715149,4.61,8.08,6.46,11.32
21.594987869262695,7.71,4.97,1.26,9.25
21.60537576675415,10.47,-1.08,-3.9,11.22
21.63791799545288,5.85,-4.92,2.06,7.91
21.640352725982666,0.59,-5.47,7.3,9.14
21.642019748687744,-0.74,-3.2,7.03,7.75
21.64856195449829,-1.03,0.17,0.54,1.17
21.65452289581299,-0.02,2.1,-4.22,4.71
21.664982795715332,2.58,3.17,-5.05,6.49
21.675062894821167,4.29,2.73,-3.41,6.12
21.685221910476685,4.05,0.61,-1.1,4.24
21.697484970092773,2.98,-0.97,0.48,3.17
21.705694913864136,2.01,-1.57,1.43,2.92
21.735533714294434,1.01,-1.1,1.86,2.38
21.737120866775513,-0.37,-0.1,2.5,2.52
21.73827075958252,-1.68,0.45,3.11,3.56
21.750539779663086,-2.35,0.39,2.56,3.49
21.755094051361084,-2.19,0.14,0.7,2.3
21.76585292816162,-1.24,-0.01,-0.95,1.56
21.775856018066406,0.0,-0.12,-1.21,1.21
21.78590202331543,0.52,-0.11,-0.85,1.0
21.796030044555664,0.1,-0.07,-0.26,0.28
21.806638717651367,-0.65,-0.17,0.46,0.81
21.838762760162354,-1.52,-0.19,0.87,1.76
21.84091091156006,-2.13,-0.02,0.9,2.31
21.84237575531006,-2.17,0.11,0.52,2.23
21.848546981811523,-1.68,0.12,0.34,1.71
21.85616683959961,-0.95,-0.03,0.31,0.99
21.866168975830078,-0.46,-0.04,0.36,0.58
21.876253843307495,-0.5,-0.02,0.94,1.06
21.88672184944153,-0.92,0.02,1.19,1.5
21.89656686782837,-1.21,0.12,1.02,1.58
21.90703296661377,-1.07,0.29,0.93,1.44
21.9392409324646,-0.87,0.28,0.9,1.28
21.94159984588623,-0.88,0.27,0.46,1.02
21.94330596923828,-0.74,0.43,0.52,1.0
21.94819688796997,-0.77,0.4,0.9,1.25
21.956020832061768,-1.16,0.38,0.88,1.5
21.966526985168457,-1.35,0.46,1.04,1.76
21.977300882339478,-1.38,0.6,1.21,1.93
21.987576007843018,-1.37,0.82,1.07,1.92
21.997267723083496,-1.28,1.0,0.95,1.88
22.007236003875732,-1.13,1.17,1.12,1.97
22.037121772766113,-1.31,1.34,2.1,2.81
22.03942084312439,-1.43,1.29,0.62,2.02
22.041193962097168,-1.16,2.03,-0.88,2.49
22.048255920410156,-1.51,2.31,-1.06,2.95
22.05718493461609,-2.04,2.38,-1.23,3.36
22.067104816436768,-2.29,2.65,-1.13,3.68
22.077749729156494,-2.91,2.99,-0.83,4.25
22.087637901306152,-3.63,3.4,-0.37,4.98
22.097840785980225,-4.34,3.75,0.2,5.73
22.10801601409912,-4.99,4.16,0.65,6.52
22.139124870300293,-5.62,4.77,1.03,7.44
22.14137887954712,-6.4,5.56,1.36,8.58
22.14310884475708,-7.07,6.18,1.52,9.51
22.148252964019775,-7.85,6.23,1.4,10.11
22.157817840576172,-9.09,6.31,0.95,11.1
22.16772484779358,-10.7,7.41,0.61,13.02
22.178242921829224,-11.71,8.2,0.49,14.3
22.18813991546631,-12.13,9.09,0.49,15.16
22.198564052581787,-13.92,10.46,1.31,17.46
22.20868682861328,-12.49,10.26,2.57,16.36
22.24006175994873,-9.09,9.48,5.06,14.07
22.242358922958374,-4.44,11.13,4.4,12.76
22.244132041931152,1.95,9.81,1.87,10.17
22.248469829559326,3.89,4.87,3.65,7.22
22.26499080657959,0.2,1.33,4.62,4.81
22.268223762512207,-5.23,0.04,3.56,6.32
22.2805757522583,-9.1,-0.72,3.16,9.65
22.288936853408813,-9.06,-1.47,5.14,10.51
22.299054861068726,-3.76,-0.54,5.89,7.0
22.309156894683838,4.2,-1.65,1.17,4.66
22.341182708740234,10.12,-5.38,-1.24,11.52
22.342824935913086,4.75,-5.53,0.86,7.34
22.34400177001953,-4.81,-4.08,1.05,6.39
22.348691940307617,-9.0,-5.46,0.78,10.55
22.364927768707275,-11.78,-6.92,0.73,13.68
22.369492053985596,-13.21,-6.65,0.36,14.79
22.383423805236816,-10.66,-5.64,0.05,12.06
22.389301776885986,-5.74,-5.37,-0.21,7.86
22.399654865264893,-4.05,-4.94,-0.6,6.41
22.410123825073242,-3.8,-4.71,-0.67,6.08
22.43632984161377,-4.01,-4.76,-0.55,6.24
22.43839192390442,-4.41,-4.68,-0.24,6.43
22.439860820770264,-4.57,-4.14,0.14,6.16
22.449306964874268,-4.66,-3.29,0.66,5.74
22.459924936294556,-4.7,-2.35,1.05,5.35
22.4700448513031,-4.62,-1.08,1.15,4.88
22.480000019073486,-4.2,0.2,1.58,4.49
22.490412712097168,-3.72,1.39,2.24,4.55
22.500311851501465,-2.92,2.62,1.09,4.07
22.51127290725708,-0.81,3.89,-1.46,4.23
22.542698860168457,2.39,4.54,-2.93,5.9
22.54481601715088,5.23,4.87,-3.32,7.87
22.546265840530396,7.15,5.46,-3.69,9.72
22.549840927124023,7.89,5.54,-4.69,10.72
22.56043577194214,7.66,5.18,-5.03,10.52
22.570791721343994,7.15,4.89,-4.53,9.77
22.58115792274475,6.49,4.94,-3.79,8.99
22.591173887252808,5.73,5.07,-3.03,8.22
22.600889921188354,4.86,4.96,-2.71,7.45
22.611632823944092,4.87,5.21,-2.19,7.46
22.63985586166382,4.74,4.74,-1.81,6.94
22.642149925231934,5.53,4.21,-1.47,7.1
22.643799781799316,7.26,3.53,-1.79,8.26
22.650503873825073,9.5,3.36,-2.64,10.41
22.66089105606079,11.33,3.92,-2.1,12.17
22.67092275619507,12.06,3.67,0.92,12.63
22.68124294281006,10.81,2.6,2.96,11.5
22.691704750061035,7.82,2.7,1.32,8.37
22.70192003250122,4.35,3.99,0.65,5.93
22.712990760803223,5.92,2.91,1.43,6.74
22.740790843963623,10.09,1.49,1.07,10.25
22.742410898208618,12.4,1.06,-2.1,12.62
22.743615865707397,11.94,0.75,-8.44,14.64
22.751018047332764,1.53,1.51,-7.62,7.91
22.76158905029297,-9.1,7.63,-2.36,12.1
22.7713680267334,-8.15,13.53,0.64,15.8
22.781864881515503,0.83,9.83,1.58,9.99
22.791650772094727,5.78,7.46,7.31,11.93
22.80212092399597,8.93,3.25,5.55,11.0
22.81213092803955,12.28,0.16,-5.35,13.39
22.8424129486084,8.13,-0.48,-4.07,9.1
22.844706058502197,-1.57,-1.61,3.15,3.87
22.846452713012695,-6.18,-0.96,6.73,9.18
22.85176992416382,-7.73,-0.49,3.52,8.5
22.861938953399658,-5.14,0.62,-3.95,6.51
22.87234401702881,2.05,0.47,-2.95,3.62
22.88283395767212,5.57,-1.1,2.9,6.37
22.892753839492798,4.08,-1.7,1.99,4.84
22.902708053588867,0.83,-0.89,0.4,1.28
22.913477897644043,-1.54,-0.4,1.44,2.14
22.944835901260376,-2.6,0.18,1.27,2.89
22.947027921676636,-2.17,0.44,0.35,2.24
22.94894504547119,-1.01,0.15,-0.12,1.02
22.95208501815796,0.06,-0.21,-0.02,0.21
22.96249771118164,0.73,-0.46,0.13,0.87
22.973057746887207,1.03,-0.53,0.24,1.18
22.983020782470703,0.99,-0.39,0.31,1.1
22.99315595626831,0.52,-0.12,0.45,0.69
23.003440856933594,-0.04,0.07,0.61,0.61
23.013473987579346,-0.32,0.15,0.72,0.8
23.042799949645996,-0.36,0.08,0.58,0.68
23.044949054718018,-0.35,0.02,0.31,0.46
23.04660177230835,-0.06,0.03,0.31,0.31
23.05306100845337,0.52,-0.05,0.46,0.69
23.06308889389038,0.84,0.06,0.44,0.95
23.073094844818115,0.65,-0.04,0.55,0.85
23.083672046661377,0.24,0.07,0.62,0.66
23.094282865524292,0.4,0.17,0.52,0.67
23.103742837905884,0.74,0.12,0.4,0.84
23.114699840545654,0.69,0.18,0.58,0.91
23.144832849502563,0.3,0.32,0.64,0.77
23.146883010864258,0.31,0.44,0.5,0.73
23.148599863052368,0.43,0.46,0.42,0.75
23.16845703125,0.4,0.53,0.11,0.67
23.170901775360107,0.16,0.72,-0.12,0.74
23.181196928024292,-0.38,0.79,-0.22,0.9
23.184131860733032,-0.9,0.68,-0.46,1.21
23.197746753692627,-1.06,0.56,-0.48,1.29
23.20431685447693,-1.24,0.45,-0.37,1.37
23.214457035064697,-1.6,0.51,-0.07,1.68
23.239393711090088,-2.2,0.66,0.18,2.3
23.24095392227173,-2.71,0.85,0.7,2.92
23.243858814239502,-3.02,1.1,1.31,3.47
23.254276752471924,-3.09,1.31,1.58,3.7
23.26448678970337,-2.96,1.54,1.43,3.63
23.274412870407104,-2.78,1.9,1.43,3.65
23.285175800323486,-2.75,2.23,1.21,3.74
23.296048879623413,-2.87,2.51,0.79,3.89
23.30529284477234,-3.02,2.76,0.42,4.11
23.31573486328125,-3.4,3.08,0.06,4.58
23.34745502471924,-4.01,3.48,-0.26,5.31
23.349946975708008,-4.63,3.84,-0.57,6.04
23.351768970489502,-4.8,4.41,-0.74,6.56
23.369441986083984,-5.14,5.09,-0.64,7.26
23.371405839920044,-5.98,5.74,-0.38,8.29
23.38328504562378,-7.21,6.17,-0.33,9.49
23.385735988616943,-9.24,6.52,-0.33,11.31
23.397238731384277,-10.9,7.47,-0.43,13.22
23.405531883239746,-10.15,8.23,0.1,13.06
23.416229724884033,-13.32,9.26,0.68,16.23
23.44237184524536,-14.91,10.25,1.82,18.18
23.4439959526062,-14.57,10.66,2.73,18.25
23.445238828659058,-9.3,10.27,4.68,14.62
23.45564079284668,-2.92,12.53,4.06,13.49
23.465853929519653,2.9,12.29,2.45,12.86
23.476073741912842,4.5,7.16,3.94,9.32
23.48637104034424,-0.29,2.96,5.61,6.34
23.4965398311615,-6.14,0.64,5.04,7.96
23.5062358379364,-8.95,-0.94,4.15,9.91
23.516765832901,-8.38,-1.03,5.58,10.12
23.54837989807129,-4.42,0.49,4.6,6.39
23.550724029541016,1.97,-0.38,0.44,2.05
23.552449941635132,6.21,-3.47,1.02,7.18
23.56884789466858,2.72,-4.63,1.75,5.64
23.571343898773193,-4.64,-4.47,1.43,6.59
23.581525802612305,-8.68,-5.5,1.24,10.35
23.58650493621826,-10.82,-6.05,1.2,12.45
23.598310947418213,-11.48,-5.74,0.89,12.86
23.606894969940186,-8.67,-5.27,0.82,10.17
23.617472887039185,-5.47,-5.03,0.58,7.45
23.64754581451416,-3.77,-4.78,0.18,6.09
23.64973282814026,-2.53,-4.63,0.01,5.27
23.6512508392334,-1.98,-4.92,-0.04,5.3
23.66775894165039,-2.36,-5.15,-0.14,5.66
23.66947293281555,-3.2,-4.83,-0.25,5.79
23.6824049949646,-3.63,-4.42,-0.28,5.72
23.687091827392578,-3.74,-3.78,-0.24,5.32
23.698287963867188,-3.55,-3.03,-0.21,4.67
23.70752787590027,-3.38,-2.28,-0.06,4.07
23.717789888381958,-3.3,-1.6,0.08,3.66
23.747968912124634,-2.88,-0.86,0.38,3.02
23.750246047973633,-1.93,-0.2,0.89,2.13
23.751965045928955,-0.58,0.5,1.03,1.28
23.756873846054077,0.65,1.33,0.65,1.61
23.767512798309326,1.71,2.22,-0.06,2.8
23.777362823486328,2.67,3.61,-0.84,4.56
23.788619995117188,3.57,4.81,-1.71,6.22
23.79867172241211,4.2,5.88,-1.66,7.41
23.808019876480103,4.36,7.21,-1.41,8.54
23.818362712860107,4.53,7.93,-1.22,9.21
23.84618592262268,4.92,8.62,-0.73,9.95
23.847729921340942,5.97,9.45,-0.13,11.17
23.848867893218994,7.43,9.36,0.15,11.95
23.86903476715088,8.36,9.56,0.99,12.73
23.871473789215088,9.48,8.51,1.38,12.81
23.881896018981934,10.33,6.87,0.37,12.41
23.88832998275757,12.98,4.52,-1.95,13.88
23.898560047149658,15.94,4.23,-4.07,16.98
23.908658027648926,16.49,4.01,-0.8,16.98
23.919167041778564,15.42,3.75,0.27,15.87
23.951366901397705,13.82,3.67,-0.06,14.29
23.953649044036865,13.86,2.89,-1.04,14.19
23.955370903015137,9.88,-0.64,-2.98,10.33
23.96688485145569,-1.69,0.87,-3.27,3.78
23.968677043914795,-8.8,10.73,-1.84,13.99
23.982858896255493,-4.92,16.44,0.81,17.17
23.98906183242798,2.62,13.12,7.66,15.41
23.99923276901245,9.0,5.38,3.38,11.01
24.00972270965576,13.99,5.06,-14.67,20.89
24.019518852233887,8.35,0.79,-8.78,12.14
24.048378944396973,-1.58,-1.71,0.08,2.32
24.050745010375977,-5.03,-2.46,7.03,8.98
24.0525119304657,-6.02,-2.78,7.52,10.02
24.067399978637695,-2.97,-0.7,2.05,3.67
24.069632053375244,1.97,-0.06,-0.45,2.02
24.08189582824707,4.56,-0.96,1.24,4.82
24.08920693397522,4.19,-1.2,3.2,5.4
24.099769830703735,1.5,-0.34,2.06,2.57
24.110108852386475,-1.24,0.65,-0.07,1.4
24.11997890472412,-2.64,1.08,-0.96,3.0
24.149055004119873,-2.34,0.67,-0.27,2.44
24.15107488632202,-1.09,-0.21,0.62,1.27
24.152173042297363,-0.09,-0.79,0.58,0.98
24.168502807617188,0.34,-0.89,0.76,1.21
24.169198989868164,0.48,-0.74,1.4,1.65
24.182738780975342,0.41,-0.54,1.35,1.51
24.190395832061768,0.09,-0.16,0.6,0.62
24.200232982635498,-0.33,0.2,0.17,0.42
24.210947036743164,-0.61,0.33,-0.17,0.71
24.220711708068848,-0.4,0.23,-0.43,0.63
24.251280784606934,0.21,-0.03,-0.13,0.24
24.253418922424316,0.61,-0.18,0.44,0.77
24.254536867141724,0.56,-0.23,0.89,1.07
24.268023014068604,0.04,-0.23,1.03,1.05
24.269962787628174,-0.66,-0.11,0.85,1.08
24.28270196914673,-0.99,0.01,0.71,1.21
24.290762901306152,-0.81,0.17,0.41,0.92
24.301570892333984,-0.25,0.22,0.06,0.33
24.311492919921875,0.43,0.09,0.28,0.52
24.32118582725525,0.25,-0.07,0.52,0.58
24.352198839187622,-0.35,0.09,0.72,0.8
24.35430884361267,-0.7,0.2,0.97,1.21
24.355724811553955,-0.99,0.33,1.01,1.45
24.369317054748535,-1.07,0.5,0.9,1.48
24.371290922164917,-0.91,0.6,0.81,1.35
24.382300853729248,-0.8,0.67,0.89,1.37
24.39124584197998,-0.85,0.62,0.87,1.36
24.401357889175415,-1.13,0.66,0.81,1.53
24.411905765533447,-1.39,0.73,1.04,1.88
24.422199726104736,-1.51,0.53,1.4,2.12
24.448877811431885,-1.39,0.63,0.39,1.57
24.451185941696167,-1.48,1.26,0.22,1.95
24.452841758728027,-1.93,1.4,-0.24,2.39
24.467918872833252,-1.87,1.61,-0.89,2.62
24.471410751342773,-1.72,1.76,-0.87,2.61
24.483192920684814,-1.78,1.85,-0.65,2.64
24.49207592010498,-1.97,1.96,-0.36,2.8
24.502357959747314,-2.18,2.16,0.08,3.06
24.512465000152588,-2.44,2.3,0.42,3.37
24.522791862487793,-2.93,2.41,0.48,3.82
24.553180932998657,-3.34,2.66,0.69,4.32
24.555916786193848,-3.91,3.06,0.84,5.03
24.557602882385254,-4.59,3.65,0.96,5.94
24.567402839660645,-5.19,4.33,1.06,6.84
24.572001934051514,-5.79,5.1,1.1,7.79
24.582823753356934,-6.73,5.66,0.95,8.84
24.592633724212646,-8.09,5.93,0.33,10.03
24.603017807006836,-9.43,6.69,-0.33,11.56
24.61303687095642,-9.02,7.9,-0.16,11.99
24.623501777648926,-11.78,8.87,-0.49,14.75
24.654162883758545,-14.29,9.95,0.57,17.42
24.656311988830566,-14.57,10.34,2.23,18.0
24.65777087211609,-11.33,9.32,4.15,15.24
24.666735887527466,-6.27,10.41,5.0,13.14
24.67269277572632,0.11,12.61,2.78,12.91
24.683377742767334,4.1,10.23,3.65,11.6
24.693387985229492,2.87,5.33,5.57,8.22
24.703518867492676,-2.61,1.89,6.06,6.86
24.71405792236328,-7.88,0.03,4.95,9.3
24.724138736724854,-10.76,-1.5,3.76,11.49
24.757365942001343,-12.43,-2.63,4.52,13.48
24.759472846984863,-10.34,-2.22,5.76,12.04
24.76085376739502,-4.94,-1.05,4.29,6.62
24.766446828842163,-0.41,-1.45,1.91,2.43
24.77387571334839,3.44,-3.96,-0.59,5.27
24.783768892288208,4.9,-4.95,-0.56,6.98
24.79415798187256,1.4,-4.15,-0.03,4.37
24.804505825042725,-1.9,-4.02,0.35,4.46
24.81435990333557,-2.87,-5.26,1.21,6.11
24.82448387145996,-4.36,-5.89,0.57,7.35
24.85458278656006,-5.57,-6.17,-0.82,8.35
24.856619834899902,-5.87,-6.17,-0.42,8.52
24.858176708221436,-7.15,-5.41,0.45,8.97
24.86700201034546,-6.55,-4.73,1.24,8.17
24.873912811279297,-5.03,-4.36,1.52,6.82
24.884615898132324,-4.25,-3.62,1.25,5.72
24.895174026489258,-4.03,-2.82,0.86,4.99
24.904927730560303,-4.01,-2.3,1.15,4.76
24.914845943450928,-3.82,-1.93,1.89,4.67
24.925312042236328,-3.56,-1.27,2.28,4.41
24.957164764404297,-2.93,-0.19,1.97,3.53
24.95932388305664,-1.71,0.75,1.42,2.34
24.961009979248047,-0.15,1.5,0.68,1.65
24.966755867004395,1.2,2.38,-0.17,2.67
24.9744930267334,2.11,3.32,-1.11,4.08
24.984949827194214,3.0,4.15,-2.08,5.52
24.99534583091736,4.05,4.94,-2.74,6.95
25.00569200515747,5.0,5.8,-2.76,8.13
25.015410900115967,5.69,6.06,-2.87,8.79
25.02590584754944,6.07,6.56,-2.58,9.3
25.056931018829346,5.94,6.68,-1.77,9.11
25.0590078830719,5.27,6.47,-0.99,8.4
25.060379028320312,4.8,7.49,-1.06,8.95
25.06637692451477,5.59,8.21,-1.51,10.04
25.075371742248535,7.2,7.73,-0.87,10.59
25.085279941558838,8.92,6.92,0.69,11.31
25.095942974090576,10.16,5.31,1.36,11.54
25.106148719787598,10.99,4.17,0.61,11.77
25.115914821624756,12.3,3.27,-1.66,12.83
25.12674903869629,13.48,2.11,0.12,13.64
25.157153844833374,12.22,1.93,2.57,12.63
25.15946388244629,9.48,2.86,1.73,10.05
25.16125774383545,8.65,2.31,-0.11,8.95
25.166659832000732,10.04,0.93,-0.91,10.12
25.176008939743042,11.72,1.21,-1.73,11.9
25.186203002929688,12.53,1.5,-4.1,13.26
25.196383953094482,12.13,0.65,-9.56,15.45
25.206707000732422,3.59,1.31,-10.87,11.52
25.216683864593506,-8.03,3.45,-6.91,11.14
25.226943016052246,-15.81,10.45,-5.51,19.73
25.25884199142456,-12.13,11.86,-2.35,17.12
25.260599851608276,-0.18,8.37,10.14,13.14
25.261762857437134,6.14,7.34,10.76,14.39
25.26659893989563,11.52,5.37,-6.05,14.07
25.27657699584961,12.43,0.12,-5.47,13.58
25.287014961242676,4.18,-3.28,2.86,6.03
25.29710292816162,-4.52,-2.38,8.56,9.96
25.307092905044556,-7.34,-0.73,4.13,8.45
25.317302942276,-6.95,1.33,-3.5,7.89
25.327826976776123,0.42,0.53,-2.97,3.04
25.35959482192993,6.35,-1.3,2.6,6.98
25.361692905426025,7.34,-1.76,1.52,7.69
25.363082885742188,4.42,-0.72,-0.36,4.49
25.367918968200684,0.01,0.09,1.03,1.03
25.385164737701416,-3.48,0.54,1.58,3.85
25.387109756469727,-4.43,0.53,1.08,4.59
25.397239923477173,-2.42,-0.13,0.73,2.53
25.407602787017822,0.06,-0.6,0.58,0.83
25.417852878570557,1.22,-0.57,0.67,1.5
25.428311824798584,1.31,-0.47,0.81,1.61
25.4562828540802,0.58,-0.26,0.52,0.82
25.458401918411255,-0.39,0.04,0.28,0.48
25.4600510597229,-1.07,0.2,0.29,1.12
25.467347860336304,-1.17,0.19,0.09,1.18
25.47805690765381,-0.7,0.07,0.21,0.73
25.48785400390625,-0.17,-0.04,0.47,0.5
25.4985249042511,-0.06,-0.07,0.58,0.58
25.50873374938965,-0.34,-0.1,0.45,0.57
25.51861000061035,-0.57,-0.07,0.43,0.71
25.529366970062256,-0.7,-0.01,0.27,0.75
25.557861804962158,-0.59,0.25,0.24,0.68
25.560144901275635,-0.3,0.22,0.37,0.52
25.561725854873657,-0.13,0.08,0.69,0.7
25.567938804626465,-0.38,-0.03,1.0,1.07
25.5784969329834,-0.62,0.06,0.83,1.03
25.58890199661255,-0.61,0.13,0.58,0.85
25.59903573989868,-0.63,0.16,0.52,0.83
25.609007835388184,-0.64,0.2,0.48,0.82
25.61919403076172,-0.66,0.33,0.61,0.95
25.62963891029358,-0.77,0.43,0.65,1.09
25.662129878997803,-0.9,0.45,0.63,1.18
25.664241790771484,-0.83,0.53,0.72,1.21
25.66600275039673,-0.86,0.61,0.87,1.36
25.668770790100098,-1.04,0.6,0.65,1.36
25.67863702774048,-1.2,0.84,0.16,1.47
25.689066886901855,-1.48,1.01,0.15,1.79
25.699326038360596,-1.9,1.01,-0.04,2.15
25.70967197418213,-1.98,1.07,-0.06,2.25
25.720088958740234,-2.01,1.3,0.18,2.4
25.729877948760986,-2.21,1.53,0.47,2.72
25.76288890838623,-2.39,1.78,0.82,3.09
25.76568293571472,-2.48,1.97,0.79,3.26
25.76786494255066,-2.65,2.2,0.76,3.52
25.77020788192749,-2.97,2.42,0.64,3.88
25.779193878173828,-3.31,2.82,0.42,4.36
25.789650917053223,-3.87,3.2,0.44,5.04
25.79943084716797,-4.51,3.63,0.3,5.79
25.81012487411499,-5.08,4.2,0.16,6.59
25.82023787498474,-5.56,5.27,0.34,7.66
25.83056402206421,-6.74,6.03,0.48,9.05
25.860915899276733,-8.72,6.82,0.15,11.07
25.862679958343506,-9.86,7.94,-0.22,12.66
25.86382484436035,-10.84,8.85,-0.79,14.01
25.870086908340454,-14.41,9.83,-1.15,17.48
25.880099773406982,-15.97,10.25,-0.13,18.97
25.890954971313477,-16.21,11.13,0.69,19.67
25.900543928146362,-12.25,11.06,2.85,16.74
25.911025047302246,-6.93,11.56,5.59,14.59
25.92080783843994,-0.72,12.24,4.47,13.05
25.931565761566162,3.65,8.56,3.54,9.95
25.963668823242188,2.39,3.17,4.58,6.06
25.96627688407898,-3.24,-0.07,4.51,5.55
25.967992782592773,-8.35,-1.66,3.14,9.07
25.986155033111572,-10.65,-2.86,2.74,11.36
25.988647937774658,-8.99,-2.95,5.59,10.98
26.000560760498047,-4.09,-1.93,4.82,6.6
26.00346088409424,3.06,-2.92,-0.43,4.25
26.015721797943115,8.8,-5.93,-0.89,10.64
26.021479845046997,5.9,-6.82,0.58,9.03
26.032285928726196,-3.06,-5.01,0.98,5.95
26.062289714813232,-6.9,-5.92,0.69,9.11
26.06440782546997,-8.89,-7.81,0.08,11.83
26.06599473953247,-10.29,-7.93,-0.52,13.0
26.071277856826782,-9.01,-6.63,-0.46,11.19
26.08135485649109,-5.22,-5.77,-0.06,7.78
26.091189861297607,-3.42,-4.97,-0.12,6.03
26.101850986480713,-2.46,-4.61,-0.21,5.22
26.11226487159729,-2.39,-4.44,-0.02,5.04
26.12213683128357,-2.99,-4.26,0.04,5.2
26.13254189491272,-3.35,-3.83,0.34,5.09
26.163322925567627,-2.88,-3.18,0.62,4.33
26.165191888809204,-2.46,-2.38,0.97,3.55
26.167064905166626,-2.41,-1.31,1.08,2.94
26.17137885093689,-2.29,-0.22,1.47,2.73
26.18241596221924,-1.87,0.73,2.21,2.98
26.192076921463013,-1.22,1.36,2.62,3.19
26.202373027801514,-0.45,1.86,2.35,3.03
26.2130389213562,0.56,2.58,1.74,3.16
26.223036766052246,1.55,3.38,1.13,3.88
26.233301877975464,2.37,4.13,0.62,4.8
26.26409673690796,2.99,5.14,0.48,5.96
26.266145706176758,3.36,5.85,0.41,6.75
26.26789903640747,3.46,6.27,0.53,7.18
26.28688883781433,3.35,6.9,0.68,7.7
26.289355754852295,3.43,8.04,0.72,8.77
26.30040693283081,4.01,8.63,0.7,9.54
26.303324937820435,5.2,8.84,0.84,10.29
26.315528869628906,6.38,7.46,0.82,9.85
26.322998046875,6.68,4.79,0.09,8.22
26.333354949951172,6.15,4.47,-1.23,7.7
26.36027693748474,5.96,4.11,-1.7,7.43
26.36177682876587,7.07,3.5,0.18,7.89
26.362990856170654,9.48,2.94,-0.39,9.93
26.372821807861328,11.22,1.89,-2.52,11.65
26.383392810821533,11.41,1.72,-2.26,11.75
26.393187999725342,10.61,1.59,-0.29,10.73
26.403666973114014,10.48,0.55,0.43,10.5
26.41375184059143,10.96,0.13,-0.63,10.97
26.424391746520996,11.54,0.89,-1.96,11.73
26.434082984924316,10.25,2.51,-2.66,10.88
26.464375972747803,8.21,1.8,-4.44,9.5
26.46637201309204,4.5,2.08,-8.5,9.84
26.468106746673584,-2.53,3.35,-14.02,14.63
26.486843824386597,-10.44,10.23,-7.44,16.4
26.4893798828125,-10.61,13.23,2.87,17.2
26.499722003936768,-0.35,5.72,6.15,8.4
26.504159927368164,4.06,4.62,2.73,6.72
26.516655921936035,4.27,9.59,1.31,10.57
26.52459692955017,6.89,5.03,2.43,8.87
26.53489875793457,8.47,-3.18,2.47,9.37
26.566964864730835,3.59,-6.19,7.49,10.35
26.569655895233154,-1.59,-6.23,10.71,12.49
26.571364879608154,-2.65,-2.6,5.82,6.9
26.58678102493286,-0.71,0.93,-2.11,2.41
26.589215755462646,1.51,2.16,-5.68,6.26
26.598777770996094,3.53,2.7,-5.27,6.89
26.604614734649658,4.64,2.28,-4.33,6.74
26.616135835647583,4.05,0.83,-3.34,5.31
26.62502098083496,2.62,-0.51,-2.11,3.4
26.635227918624878,1.57,-1.22,-0.55,2.06
26.66518497467041,1.04,-1.22,1.38,2.11
26.666876792907715,0.6,-0.61,2.99,3.11
26.668012857437134,-0.27,-0.06,3.82,3.83
26.687208890914917,-1.24,0.05,3.97,4.15
26.6896710395813,-1.77,-0.02,3.05,3.52
26.700034856796265,-1.63,0.04,1.3,2.08
26.705368041992188,-0.96,0.26,-0.22,1.01
26.716112852096558,-0.25,0.44,-0.94,1.06
26.72576379776001,0.18,0.27,-0.87,0.92
26.73624086380005,0.38,-0.11,-0.28,0.48
26.77021884918213,0.31,-0.44,0.68,0.86
26.77235174179077,-0.24,-0.53,1.33,1.45
26.773510932922363,-1.04,-0.24,1.47,1.81
26.787149906158447,-1.68,0.07,1.17,2.04
26.78892683982849,-1.87,0.21,0.69,2.0
26.79918098449707,-1.51,0.04,0.34,1.54
26.80554986000061,-0.88,0.07,0.08,0.88
26.81648874282837,-0.46,0.07,0.1,0.47
26.826059818267822,-0.5,0.01,0.35,0.61
26.83739995956421,-0.77,0.12,0.44,0.89
26.865458965301514,-1.03,0.17,0.51,1.16
26.86775493621826,-1.01,0.18,0.45,1.12
26.869548797607422,-0.9,0.22,0.54,1.07
26.886075019836426,-0.95,0.31,0.52,1.12
26.88795280456543,-0.93,0.42,0.37,1.08
26.899986743927002,-0.68,0.36,0.76,1.08
26.90644598007202,-0.44,0.33,0.78,0.95
26.9165940284729,-0.29,0.32,0.48,0.64
26.927052974700928,-0.53,0.24,0.44,0.72
26.93707275390625,-0.89,0.33,0.53,1.08
26.96718978881836,-1.19,0.44,0.61,1.4
26.96938705444336,-1.29,0.29,0.99,1.65
26.97106170654297,-1.24,0.29,1.13,1.7
26.986276865005493,-1.33,0.73,1.35,2.03
26.988098859786987,-1.64,0.98,1.97,2.74
26.999960899353027,-1.49,1.53,0.94,2.33
27.007109880447388,-1.45,2.2,0.25,2.64
27.01781392097473,-1.8,2.45,-0.28,3.05
27.0274178981781,-2.02,2.54,-0.65,3.3
27.037850856781006,-2.33,2.71,-0.87,3.67
27.069644927978516,-2.8,2.95,-0.72,4.13
27.072158813476562,-3.26,3.16,-0.47,4.56
27.073812007904053,-3.63,3.48,0.02,5.02
27.087448835372925,-3.97,3.6,0.69,5.4
27.09005093574524,-4.52,4.19,0.93,6.23
27.10072684288025,-5.1,4.91,1.18,7.17
27.10784673690796,-5.98,4.92,1.18,7.83
27.118088722229004,-7.21,4.93,0.67,8.76
27.12857484817505,-8.2,5.88,0.31,10.09
27.138564825057983,-9.24,7.04,0.09,11.61
27.169715881347656,-10.05,8.82,0.25,13.37
27.171905994415283,-11.05,10.47,0.48,15.23
27.173585891723633,-13.48,10.19,0.78,16.91
27.18593978881836,-12.67,7.97,2.28,15.14
27.187825918197632,-9.45,6.82,3.62,12.2
27.201111793518066,-5.44,9.89,2.68,11.6
27.208327770233154,0.82,11.28,0.91,11.34
27.218737840652466,4.17,7.33,3.21,9.02
27.228811740875244,1.29,3.11,5.24,6.22
27.23926091194153,-4.62,1.13,4.73,6.7
27.27170491218567,-9.06,-0.08,3.32,9.64
27.273859977722168,-11.19,-1.32,2.9,11.63
27.275173902511597,-10.62,-2.22,4.66,11.8
27.284612894058228,-5.9,-1.72,5.52,8.26
27.28846287727356,0.02,-1.78,1.58,2.38
27.300347805023193,4.88,-3.02,-0.11,5.73
27.309289932250977,4.35,-4.01,0.84,5.97
27.31904697418213,-2.31,-3.15,1.25,4.1
27.330235958099365,-6.21,-4.15,1.27,7.57
27.33959984779358,-8.34,-5.52,0.98,10.04
27.37109684944153,-9.28,-5.87,0.33,10.98
27.37457585334778,-7.74,-5.2,-0.14,9.32
27.376179933547974,-5.05,-4.34,-0.4,6.67
27.384387969970703,-3.31,-3.83,-0.51,5.08
27.389139890670776,-2.57,-3.71,-0.33,4.52
27.399804830551147,-2.76,-3.65,0.06,4.57
27.409910917282104,-3.31,-3.56,0.34,4.87
27.419972896575928,-3.71,-3.41,0.53,5.06
27.430627822875977,-3.74,-3.03,0.79,4.87
27.439931869506836,-3.75,-2.4,1.06,4.57
27.469385862350464,-3.6,-1.71,1.26,4.17
27.471022844314575,-3.17,-0.85,1.6,3.65
27.472126960754395,-2.45,-0.13,1.98,3.15
27.489266872406006,-1.72,0.46,1.99,2.67
27.49195098876953,-0.98,1.05,1.62,2.16
27.501216888427734,-0.08,1.9,1.06,2.17
27.510039806365967,0.82,2.81,0.47,2.96
27.520179748535156,1.57,3.67,-0.06,3.99
27.530364990234375,2.2,4.38,-0.45,4.92
27.5402250289917,2.84,4.89,-0.74,5.7
27.56680202484131,3.5,5.23,-0.97,6.36
27.56964683532715,4.12,5.65,-1.19,7.09
27.571775913238525,4.83,6.36,-1.41,8.1
27.586129903793335,5.55,6.57,-1.65,8.75
27.5905978679657,6.34,6.44,-1.76,9.2
27.601066827774048,7.0,6.26,-2.02,9.6
27.610580921173096,8.23,6.35,-2.14,10.61
27.620704889297485,9.39,5.31,-2.51,11.07
27.630743980407715,10.87,3.74,-3.63,12.05
27.640744924545288,12.25,4.02,-4.91,13.79
27.66580295562744,15.18,5.3,-3.67,16.49
27.668346881866455,15.02,4.36,-0.7,15.65
27.671201705932617,12.63,3.17,-0.9,13.05
27.68562889099121,10.16,2.38,-4.63,11.41
27.69131374359131,9.51,3.34,-4.34,10.97
27.701480865478516,9.05,4.74,1.03,10.26
27.7121000289917,10.32,0.41,0.44,10.33
27.722174882888794,9.55,-0.85,-5.02,10.82
27.732420921325684,0.71,0.55,-3.81,3.91
27.742234706878662,-8.48,2.7,-0.97,8.95
27.77648091316223,-12.45,9.25,-6.51,16.82
27.780086994171143,-9.99,9.75,-3.05,14.28
27.78324604034424,-2.49,6.36,0.28,6.83
27.786085844039917,3.2,8.7,1.28,9.35
27.80442476272583,6.8,8.36,8.1,13.48
27.8067569732666,11.54,1.61,3.71,12.22
27.817023754119873,14.16,-1.13,-4.46,14.88
27.822343826293945,6.26,-2.13,-0.1,6.61
27.83332586288452,-1.44,-2.88,5.36,6.25
27.84310793876648,-3.47,-1.95,6.58,7.69
27.87449073791504,-2.46,-0.28,1.25,2.77
27.876389026641846,2.64,1.75,-5.16,6.05
27.877811908721924,6.73,1.78,-2.73,7.47
27.885207891464233,6.5,0.31,0.51,6.52
27.892040729522705,2.24,-0.63,1.36,2.69
27.902549743652344,-2.07,-0.82,1.82,2.87
27.91272282600403,-4.14,-0.44,2.54,4.87
27.923163890838623,-3.67,-0.06,2.92,4.69
27.932950019836426,-2.0,-0.05,2.09,2.89
27.943397045135498,-0.94,-0.15,0.89,1.3
27.973060846328735,-0.58,-0.18,0.42,0.73
27.975247859954834,-0.25,-0.22,0.26,0.42
27.976914882659912,0.07,-0.29,0.01,0.29
27.98519492149353,0.01,-0.24,0.12,0.26
27.992674827575684,-0.4,-0.07,0.37,0.54
28.003403902053833,-0.83,-0.04,0.64,1.04
28.013556957244873,-1.04,-0.19,0.64,1.23
28.024051904678345,-0.87,-0.35,0.51,1.06
28.03354287147522,-0.47,-0.36,0.43,0.73
28.044100761413574,-0.12,-0.23,0.17,0.31
28.077208995819092,0.13,0.0,0.12,0.17
28.079383850097656,0.03,-0.17,0.39,0.42
28.081039905548096,-0.34,-0.38,0.58,0.77
28.084487915039062,-0.33,-0.32,0.45,0.64
28.10050106048584,0.17,0.4,0.15,0.45
28.103582859039307,-0.27,0.57,0.27,0.68
28.11629581451416,-0.7,0.48,0.21,0.87
28.124167919158936,-0.22,0.14,0.52,0.58
28.13410782814026,0.32,0.03,0.43,0.53
28.14473295211792,0.35,0.18,0.27,0.47
28.174909830093384,0.0,0.28,0.4,0.48
28.176992893218994,-0.48,0.23,0.4,0.66
28.17848300933838,-0.76,0.13,0.39,0.86
28.184701919555664,-0.87,0.08,0.61,1.06
28.19405174255371,-0.91,0.15,0.73,1.17
28.204078912734985,-0.85,0.24,0.87,1.23
28.214483737945557,-0.99,0.38,1.17,1.57
28.224859714508057,-1.37,0.45,1.28,1.92
28.23489785194397,-1.63,0.61,1.25,2.14
28.24523401260376,-1.73,0.76,1.27,2.27
28.27683687210083,-1.69,0.75,1.05,2.12
28.279186725616455,-1.33,1.01,0.33,1.7
28.280996799468994,-1.2,1.56,0.31,1.99
28.284721851348877,-1.51,1.75,0.23,2.32
28.301180839538574,-1.72,1.95,0.0,2.6
28.304574966430664,-1.98,2.21,-0.3,2.98
28.31690287590027,-1.41,2.36,-0.07,2.75
28.325146913528442,-2.3,2.37,-0.34,3.32
28.33592987060547,-4.49,2.59,-0.17,5.18
28.34562873840332,-3.57,2.81,-0.05,4.54
28.378339767456055,-3.53,3.07,-0.27,4.68
28.37978172302246,-3.91,3.2,-0.39,5.06
28.38089895248413,-4.5,3.69,-0.48,5.83
28.38531494140625,-4.89,4.31,-0.2,6.52
28.40063786506653,-5.74,4.54,0.08,7.31
28.405447959899902,-7.05,4.95,-0.2,8.61
28.416121006011963,-8.39,6.17,-0.06,10.41
28.426129817962646,-10.04,7.47,-0.02,12.51
28.43595600128174,-8.77,8.06,0.45,11.91
28.44708776473999,-11.1,8.69,0.73,14.11
28.477324962615967,-13.56,9.66,1.83,16.74
28.479172706604004,-13.27,9.32,2.95,16.48
28.480323791503906,-9.09,8.44,4.88,13.32
28.48553991317749,-3.33,10.87,2.89,11.73
28.500568866729736,2.0,11.79,1.64,12.07
28.50611400604248,1.88,7.44,5.01,9.16
28.516997814178467,-2.66,3.45,6.0,7.41
28.52657699584961,-7.03,1.34,5.08,8.77
28.536608934402466,-9.36,-0.68,4.63,10.46
28.547327995300293,-9.4,-2.88,3.72,10.51
28.577889919281006,-7.78,-3.2,3.68,9.18
28.579869747161865,-4.03,-1.06,4.26,5.95
28.58131980895996,2.01,-0.88,-0.52,2.25
28.58606481552124,7.16,-3.22,-1.83,8.06
28.600518941879272,4.38,-4.4,0.74,6.25
28.606492042541504,-3.28,-4.47,2.33,6.01
28.61738395690918,-7.92,-6.15,3.48,10.61
28.62728786468506,-10.12,-7.51,3.49,13.07
28.637183904647827,-10.69,-7.01,2.03,12.94
28.648054838180542,-8.14,-5.3,0.75,9.74
28.67647886276245,-5.03,-4.0,0.32,6.43
28.678547859191895,-3.67,-3.48,0.29,5.06
28.680237770080566,-3.2,-3.46,0.78,4.77
28.68673801422119,-3.27,-3.41,1.2,4.87
28.697141885757446,-3.61,-3.17,1.23,4.95
28.707578897476196,-3.68,-2.8,1.08,4.74
28.71763801574707,-3.64,-2.22,1.0,4.37
28.72807788848877,-3.24,-1.43,0.9,3.65
28.737875938415527,-2.38,-0.61,1.15,2.71
28.74832773208618,-1.25,0.15,1.36,1.85
28.780452728271484,-0.23,0.66,1.22,1.4
28.782440900802612,0.47,1.11,0.97,1.54
28.784174919128418,0.87,1.74,0.78,2.09
28.787883758544922,1.33,2.58,0.59,2.96
28.79754400253296,2.09,3.47,0.25,4.05
28.80818796157837,3.06,4.14,-0.12,5.14
28.81880474090576,4.01,4.44,-0.42,5.99
28.828485012054443,4.83,4.79,-0.66,6.83
28.838346004486084,5.42,5.31,-0.86,7.63
28.849462032318115,5.79,6.16,-1.01,8.51
28.87915802001953,5.61,6.46,-1.18,8.63
28.88125991821289,5.23,6.59,-0.79,8.45
28.883002758026123,5.1,6.4,-0.16,8.18
28.888216018676758,5.01,4.92,0.1,7.02
28.898119926452637,5.54,4.42,-1.51,7.24
28.90916872024536,6.41,4.68,-2.76,8.4
28.9186429977417,7.71,4.59,-1.05,9.03
28.929101943969727,9.1,4.38,2.01,10.29
28.939064979553223,10.01,3.73,1.4,10.77
28.94983673095703,11.27,2.98,-3.05,12.04
28.980952739715576,12.58,2.17,-3.18,13.15
28.982911825180054,11.07,1.9,0.57,11.24
28.983980894088745,9.68,1.24,0.3,9.76
29.004514932632446,9.68,1.7,-1.77,9.98
29.006868839263916,10.85,2.47,-1.98,11.3
29.018953800201416,10.67,1.34,-2.61,11.06
29.021821975708008,4.75,1.53,-6.5,8.19
29.033283710479736,-6.7,7.85,-2.99,10.74
29.039593935012817,-8.92,15.9,-2.9,18.46
29.051039934158325,-1.17,11.89,-0.43,11.95
29.079147815704346,5.55,4.9,5.84,9.42
29.0811128616333,8.92,3.74,0.66,9.69
29.082197904586792,10.86,3.22,-8.03,13.88
29.08901882171631,4.87,2.02,-5.46,7.59
29.099475860595703,-2.05,-0.72,2.48,3.29
29.110031843185425,-4.62,-2.48,8.17,9.7
29.120072841644287,-3.34,-4.13,8.36,9.9
29.13079595565796,1.88,-3.14,0.49,3.69
29.14079189300537,6.66,-0.74,-4.19,7.9
29.150998830795288,8.03,0.84,-1.93,8.3
29.183279037475586,4.93,1.8,0.23,5.25
29.18516778945923,0.69,1.24,-0.44,1.48
29.186803817749023,-1.55,0.21,-1.21,1.97
29.205759048461914,-1.45,-0.3,0.16,1.48
29.20764398574829,-0.45,-0.49,1.35,1.5
29.217866897583008,-0.1,-0.35,1.65,1.68
29.2204270362854,-0.55,-0.15,1.9,1.98
29.23347282409668,-1.11,-0.06,1.74,2.06
29.240288734436035,-1.11,-0.08,1.55,1.9
29.25098490715027,-0.71,-0.24,1.56,1.73
29.278587818145752,-0.64,-0.32,1.25,1.44
29.281059741973877,-1.03,-0.23,0.89,1.38
29.2823429107666,-1.3,0.0,0.66,1.45
29.29046893119812,-1.2,0.12,0.69,1.38
29.30076289176941,-1.1,0.09,0.65,1.28
29.311224937438965,-0.99,-0.07,0.68,1.2
29.321342945098877,-0.78,-0.23,0.96,1.25
29.33186101913452,-0.62,-0.09,0.78,1.0
29.341364860534668,-0.4,0.14,0.6,0.73
29.352146863937378,-0.41,0.07,0.73,0.84
29.38825488090515,-0.56,0.19,0.57,0.82
29.38964605331421,-0.22,0.08,0.53,0.57
29.39080286026001,0.31,-0.08,0.6,0.68
29.405444860458374,-0.08,-0.05,0.61,0.61
29.407203912734985,-0.55,0.16,0.37,0.68
29.418799877166748,-0.7,0.14,0.31,0.77
29.421600818634033,-0.53,-0.09,0.4,0.67
29.4337420463562,-0.25,-0.13,0.53,0.6
29.44181203842163,-0.12,0.03,0.58,0.59
29.452159881591797,-0.29,0.17,0.78,0.84
29.482000827789307,-0.55,0.08,0.66,0.86
29.483635902404785,-0.71,0.11,0.65,0.96
29.484694004058838,-0.72,0.16,0.62,0.96
29.505494832992554,-0.86,0.37,0.61,1.11
29.507983922958374,-1.24,0.54,0.48,1.43
29.517061710357666,-1.49,0.93,0.32,1.78
29.522238731384277,-1.52,1.07,0.47,1.91
29.533944845199585,-1.39,1.07,0.36,1.79
29.542648792266846,-1.29,1.39,0.44,1.94
29.552634716033936,-1.62,1.64,0.61,2.38
29.5851309299469,-2.03,1.91,0.6,2.85
29.58713984489441,-2.21,1.96,0.61,3.01
29.588253021240234,-2.18,1.86,0.43,2.89
29.605666875839233,-2.26,2.04,0.57,3.09
29.607569932937622,-2.84,2.48,0.75,3.84
29.618066787719727,-3.6,2.97,0.72,4.72
29.622987747192383,-4.22,3.46,0.61,5.49
29.634562015533447,-4.55,3.88,0.53,6.0
29.643232822418213,-4.76,4.35,0.17,6.45
29.653753757476807,-5.19,5.26,-0.12,7.39
29.685221910476685,-5.95,6.19,0.16,8.58
29.687413930892944,-7.14,6.46,0.59,9.64
29.688923835754395,-8.98,6.84,0.71,11.31
29.70555090904236,-8.81,7.88,0.97,11.85
29.707311868667603,-10.72,8.14,0.87,13.48
29.71930193901062,-13.21,8.88,1.23,15.96
29.72354793548584,-13.46,9.55,2.19,16.64
29.734479904174805,-10.59,9.39,3.31,14.53
29.743875980377197,-6.06,9.74,4.1,12.18
29.753909826278687,-0.09,10.72,3.55,11.29
29.78570795059204,3.58,9.03,3.58,10.35
29.78798770904541,1.15,5.29,5.19,7.49
29.789734840393066,-3.79,2.46,4.74,6.54
29.80694890022278,-7.84,0.63,4.18,8.9
29.809185028076172,-9.99,-0.94,4.1,10.83
29.818522930145264,-9.11,-2.11,4.82,10.52
29.82404589653015,-5.64,-1.18,6.06,8.36
29.837239742279053,-0.73,-0.38,2.33,2.47
29.844631910324097,6.49,-2.66,-1.85,7.25
29.85517382621765,8.21,-4.74,0.48,9.49
29.885015964508057,-0.45,-3.62,2.07,4.19
29.88655996322632,-6.35,-3.88,2.36,7.8
29.887671947479248,-8.43,-5.87,2.55,10.58
29.90537190437317,-9.85,-6.7,1.68,12.03
29.907115936279297,-9.82,-5.69,0.59,11.36
29.918410778045654,-6.29,-4.69,0.01,7.84
29.924681901931763,-3.62,-4.12,-0.28,5.49
29.935083866119385,-2.85,-3.92,-0.23,4.85
29.945268869400024,-2.75,-4.16,0.19,4.99
29.955323934555054,-3.11,-4.63,0.61,5.61
29.988327026367188,-3.6,-4.74,0.95,6.02
29.990672826766968,-3.75,-4.5,1.06,5.95
29.992219924926758,-3.61,-4.08,1.06,5.54
30.002532958984375,-3.3,-3.51,0.98,4.91
30.004770755767822,-3.19,-2.87,1.01,4.4
30.017875909805298,-3.37,-1.91,1.24,4.06
30.024892807006836,-3.31,-0.97,1.64,3.81
30.035481929779053,-2.86,-0.06,2.12,3.56
30.04548692703247,-2.02,0.8,2.45,3.27
30.05580997467041,-1.17,1.78,2.37,3.18
30.083110809326172,-0.36,2.91,1.92,3.5
30.085449934005737,0.61,3.99,1.27,4.23
30.0869197845459,1.74,5.16,0.6,5.47
30.104887008666992,2.74,6.76,0.04,7.29
30.105783939361572,3.74,7.32,-0.43,8.23
30.118788719177246,4.28,7.79,-0.31,8.89
30.125813007354736,4.39,8.63,-0.31,9.68
30.135867834091187,4.35,9.02,-0.21,10.01
30.14663791656494,4.67,9.44,0.29,10.53
30.156543731689453,6.06,9.1,0.54,10.94
30.18656587600708,8.31,8.06,0.3,11.58
30.188655853271484,10.35,6.88,0.22,12.43
30.18978977203369,11.55,4.76,-0.2,12.49
30.205755710601807,12.52,3.55,-1.58,13.1
30.207523822784424,13.9,2.87,-3.44,14.6
30.219218730926514,14.2,1.88,-2.53,14.54
30.226650714874268,12.09,1.72,-0.13,12.21
30.236856937408447,8.94,2.17,-0.5,9.21
30.24734592437744,8.55,1.87,-1.27,8.84
30.257444858551025,10.4,2.13,-1.28,10.69
30.28891086578369,12.74,1.32,-2.28,13.0
30.291075706481934,13.22,0.65,-6.46,14.72
30.292173862457275,5.18,0.77,-10.83,12.02
30.303653717041016,-6.54,4.88,-6.91,10.69
30.306612968444824,-14.78,12.59,1.92,19.51
30.319612979888916,-10.89,14.86,2.38,18.57
