time,ax,ay,az,atotal
0.011967897415161133,0.03,0.19,-0.15,0.24
0.015176057815551758,-0.13,0.27,-0.07,0.3
0.024746179580688477,-0.14,0.25,0.11,0.3
0.03479504585266113,-0.03,0.18,0.09,0.2
0.04468798637390137,-0.09,0.17,-0.03,0.19
0.05624890327453613,-0.12,0.16,-0.01,0.2
0.06600308418273926,-0.2,0.15,-0.08,0.26
0.07588005065917969,-0.16,0.07,-0.1,0.2
0.08490490913391113,0.09,0.07,-0.18,0.21
0.09593605995178223,0.19,0.03,-0.01,0.19
0.10625910758972168,0.13,0.01,0.09,0.15
0.11641597747802734,0.07,0.02,0.08,0.1
0.12612605094909668,0.05,0.05,0.02,0.07
0.13623905181884766,-0.05,0.14,0.01,0.14
0.14627814292907715,-0.12,0.11,0.14,0.21
0.1566910743713379,-0.15,0.05,0.22,0.27
0.16633105278015137,-0.06,0.05,0.14,0.16
0.17673707008361816,-0.04,0.09,-0.07,0.12
0.18653512001037598,-0.12,0.19,-0.16,0.27
0.1966111660003662,-0.12,0.21,0.04,0.24
0.20671296119689941,-0.02,0.01,0.28,0.28
0.21686911582946777,0.04,0.06,-0.1,0.12
0.2267591953277588,-0.1,0.18,-0.11,0.23
0.2370469570159912,-0.19,0.09,0.12,0.24
0.24685215950012207,-0.2,0.09,0.06,0.22
0.25699687004089355,-0.19,0.16,0.0,0.24
0.2661778926849365,-0.13,0.17,0.05,0.21
0.2761709690093994,-0.13,0.2,0.07,0.24
0.28626418113708496,-0.14,0.17,0.15,0.26
0.2964770793914795,-0.07,0.07,0.13,0.16
0.30634403228759766,-0.03,0.04,0.13,0.13
0.31668591499328613,0.02,0.05,0.04,0.06
0.32666707038879395,0.01,0.13,-0.15,0.19
0.3366401195526123,-0.01,0.17,-0.12,0.2
0.3468790054321289,0.05,0.14,-0.04,0.15
0.3569791316986084,0.01,0.09,0.01,0.09
0.36725306510925293,-0.03,0.06,0.03,0.07
0.37714099884033203,-0.02,0.15,-0.08,0.17
0.3868989944458008,-0.06,0.18,0.03,0.19
0.397136926651001,-0.07,0.09,0.09,0.14
0.407196044921875,-0.02,0.11,-0.09,0.14
0.4174520969390869,0.06,0.15,-0.14,0.21
0.4273359775543213,0.1,0.09,-0.03,0.13
0.4373791217803955,0.02,0.11,0.04,0.11
0.4482271671295166,-0.05,0.12,0.18,0.22
0.45823097229003906,0.0,0.06,0.26,0.26
0.46866488456726074,0.03,0.07,0.07,0.1
0.478381872177124,0.03,0.18,-0.21,0.27
0.4883840084075928,0.08,0.2,-0.16,0.26
0.49843716621398926,0.16,0.04,0.13,0.21
0.5079648494720459,0.12,-0.02,0.37,0.38
0.5200650691986084,-0.01,-0.11,0.55,0.56
0.5288951396942139,-0.1,-0.08,0.45,0.46
0.5387639999389648,-0.14,0.08,0.21,0.26
0.5488250255584717,-0.15,0.18,0.15,0.27
0.5589599609375,-0.32,0.21,0.22,0.44
0.5690109729766846,-0.38,0.17,0.3,0.51
0.5790059566497803,-0.29,0.11,0.14,0.34
0.5888888835906982,-0.14,0.11,-0.03,0.18
0.5992519855499268,0.01,0.1,-0.06,0.11
0.6092090606689453,-0.04,0.15,-0.06,0.16
0.6192359924316406,-0.16,0.16,0.09,0.24
0.6293818950653076,-0.24,0.11,0.13,0.29
0.6393899917602539,-0.28,0.11,0.05,0.3
0.649616003036499,-0.28,0.15,0.02,0.31
0.6594178676605225,-0.24,0.19,-0.1,0.32
0.6694650650024414,-0.19,0.21,-0.25,0.37
0.679908037185669,-0.08,0.19,-0.27,0.33
0.6894049644470215,0.0,0.14,-0.31,0.34
0.6998729705810547,0.0,0.13,-0.38,0.4
0.709805965423584,-0.01,0.11,-0.28,0.3
0.7198078632354736,-0.01,0.16,-0.18,0.24
0.7301340103149414,0.0,0.21,-0.12,0.24
0.7399380207061768,-0.03,0.16,-0.17,0.23
0.7500050067901611,-0.01,0.16,-0.4,0.43
0.7601330280303955,0.09,0.12,-0.38,0.4
0.7700588703155518,0.11,0.07,-0.21,0.24
0.7804319858551025,0.07,0.1,-0.23,0.26
0.7899520397186279,-0.04,0.21,-0.29,0.36
0.8003380298614502,-0.05,0.18,-0.16,0.24
0.8105151653289795,-0.03,0.1,-0.18,0.2
0.8206110000610352,-0.16,0.05,-0.34,0.37
0.8306019306182861,-0.22,0.09,-0.56,0.6
0.8420169353485107,-0.05,0.16,-0.72,0.73
0.8509500026702881,0.13,0.32,-0.75,0.82
0.8610100746154785,0.11,0.42,-0.35,0.55
0.870952844619751,0.05,0.21,0.11,0.24
0.8809280395507812,-0.16,0.07,0.21,0.27
0.890984058380127,-0.32,0.07,0.29,0.43
0.9004590511322021,-0.34,0.14,0.44,0.57
0.9110639095306396,-0.2,0.01,0.5,0.53
0.9211750030517578,0.17,0.0,0.08,0.18
0.9311020374298096,0.23,0.19,-0.4,0.49
0.9414689540863037,0.06,0.25,-0.24,0.35
0.9512498378753662,0.06,0.13,0.08,0.16
0.9613840579986572,0.18,-0.02,0.23,0.29
0.9713008403778076,0.2,-0.07,0.16,0.26
0.9815280437469482,0.1,0.09,0.19,0.23
0.9915640354156494,0.08,0.12,0.51,0.53
1.0014660358428955,0.02,0.04,0.64,0.64
1.0115258693695068,-0.12,0.07,0.6,0.61
1.0215771198272705,-0.09,0.01,0.57,0.57
1.0316660404205322,0.12,-0.1,0.5,0.52
1.042024850845337,0.24,-0.1,0.4,0.47
1.0518271923065186,0.11,0.02,0.21,0.23
1.0618140697479248,-0.02,0.1,0.21,0.23
1.0719048976898193,-0.06,0.17,0.1,0.2
1.081984043121338,-0.03,0.18,0.04,0.18
1.091843843460083,0.03,0.16,-0.08,0.18
1.1023271083831787,0.22,0.02,0.14,0.26
1.1121799945831299,0.13,-0.1,0.35,0.38
1.12227201461792,-0.11,0.03,0.13,0.17
1.1321539878845215,0.0,0.05,0.52,0.52
1.142038106918335,0.02,0.06,0.36,0.36
1.1525590419769287,-0.01,0.07,0.33,0.33
1.1625421047210693,0.03,0.06,0.56,0.56
1.172563076019287,0.11,0.02,0.59,0.6
1.1827151775360107,0.0,0.0,0.48,0.48
1.1924841403961182,0.05,0.01,0.46,0.46
1.2030270099639893,0.17,0.0,0.29,0.33
1.2128498554229736,0.15,0.03,0.17,0.22
1.2229070663452148,0.15,-0.03,0.25,0.29
1.2330849170684814,0.12,0.05,0.24,0.27
1.2429969310760498,0.03,0.14,0.17,0.22
1.2532780170440674,-0.02,0.18,-0.01,0.18
1.263049840927124,0.02,0.17,-0.09,0.19
1.2730510234832764,0.08,0.04,-0.09,0.12
1.283324956893921,0.06,0.06,-0.2,0.21
1.292984962463379,-0.04,0.21,-0.2,0.29
1.3039171695709229,-0.05,0.23,-0.12,0.26
1.3133819103240967,-0.05,0.29,-0.19,0.35
1.323456048965454,-0.09,0.24,-0.29,0.38
1.3335630893707275,-0.04,0.08,-0.26,0.27
1.3436129093170166,0.03,-0.01,-0.18,0.18
1.3535990715026855,0.18,0.04,-0.12,0.22
1.3639118671417236,0.11,0.2,-0.08,0.24
1.3737208843231201,-0.07,0.24,-0.04,0.25
1.3839681148529053,-0.08,0.21,-0.09,0.24
1.3936679363250732,-0.15,0.19,-0.02,0.24
1.4039490222930908,-0.12,0.14,0.04,0.18
1.4143378734588623,-0.01,0.13,-0.02,0.13
1.4240639209747314,0.04,0.11,-0.06,0.13
1.4341909885406494,0.07,0.12,-0.13,0.19
1.4441800117492676,0.01,0.13,-0.09,0.15
1.4540979862213135,-0.09,0.07,0.09,0.14
1.464644193649292,-0.1,0.05,0.08,0.13
1.4743211269378662,-0.06,0.13,-0.02,0.14
1.4844470024108887,-0.04,0.09,0.0,0.09
1.4942729473114014,0.01,0.06,-0.1,0.11
1.5040171146392822,0.05,0.09,-0.12,0.15
1.5141880512237549,0.02,0.1,-0.17,0.19
1.5238111019134521,0.0,0.12,-0.13,0.17
1.534837007522583,0.04,0.16,-0.09,0.18
1.544830083847046,0.03,0.13,0.0,0.13
1.5549180507659912,-0.04,0.1,0.17,0.2
1.565291166305542,-0.09,0.14,0.3,0.34
1.5749619007110596,-0.09,0.14,0.24,0.29
1.5849778652191162,-0.14,0.08,0.03,0.16
1.5948469638824463,-0.14,0.2,-0.13,0.27
1.6051740646362305,-0.02,0.22,0.12,0.25
1.6153690814971924,-0.02,0.13,0.2,0.23
1.6254098415374756,-0.08,0.1,0.05,0.13
1.6352479457855225,-0.14,0.1,0.01,0.17
1.6456120014190674,-0.06,0.11,-0.02,0.12
1.6556360721588135,0.02,0.15,-0.14,0.2
1.6661031246185303,-0.01,0.1,-0.05,0.11
1.6757471561431885,-0.06,0.12,-0.02,0.13
1.6857709884643555,-0.04,0.14,-0.14,0.2
1.6959269046783447,-0.06,0.19,-0.19,0.27
1.7058188915252686,-0.03,0.18,-0.11,0.21
1.7159340381622314,-0.02,0.15,-0.11,0.18
1.7258431911468506,-0.1,0.12,-0.06,0.16
1.7359859943389893,-0.15,0.09,-0.03,0.17
1.7460711002349854,-0.12,0.12,0.0,0.16
1.756072998046875,-0.15,0.18,-0.06,0.24
1.7663280963897705,-0.15,0.24,-0.08,0.29
1.776263952255249,-0.07,0.18,0.03,0.19
1.786255121231079,0.01,0.21,-0.02,0.21
1.7961030006408691,-0.02,0.13,0.19,0.23
1.806427001953125,-0.07,-0.01,0.48,0.48
1.8163909912109375,-0.13,-0.04,0.53,0.54
1.826361894607544,-0.11,-0.01,0.55,0.56
1.8357899188995361,0.05,0.04,0.37,0.37
1.8466429710388184,0.08,0.13,0.15,0.21
1.8578200340270996,0.05,0.07,0.12,0.14
1.8670380115509033,0.1,0.06,0.16,0.19
1.8770649433135986,0.06,0.1,0.13,0.17
1.8868579864501953,-0.02,0.03,0.08,0.08
1.8966140747070312,0.08,0.07,0.02,0.1
1.9070310592651367,0.12,0.12,-0.02,0.17
1.9171340465545654,0.03,0.19,-0.05,0.19
1.9272539615631104,-0.07,0.18,0.04,0.19
1.9370858669281006,0.08,0.06,0.06,0.11
1.9472591876983643,0.13,0.08,-0.12,0.19
1.9573030471801758,0.07,0.13,-0.2,0.24
1.967466115951538,0.09,0.15,-0.2,0.26
1.9774291515350342,0.1,0.15,-0.09,0.2
1.9873478412628174,0.09,0.11,-0.14,0.19
2.000962018966675,0.19,0.09,0.0,0.21
2.006387948989868,0.11,0.1,0.08,0.16
2.0193960666656494,0.07,0.08,0.18,0.2
2.028010129928589,-0.01,0.06,0.16,0.17
2.0377681255340576,-0.08,0.12,0.04,0.14
2.0480780601501465,0.0,0.19,-0.09,0.21
2.057884931564331,0.06,0.15,-0.18,0.24
2.0716609954833984,0.11,0.13,-0.12,0.2
2.07887601852417,0.17,0.13,-0.01,0.21
2.089215040206909,0.13,0.07,0.06,0.15
2.129610061645508,0.01,0.1,0.06,0.11
2.131870985031128,-0.19,0.19,0.1,0.28
2.1338789463043213,-0.13,0.15,0.12,0.23
2.139155149459839,0.0,0.09,0.08,0.12
2.1408541202545166,0.03,0.1,0.07,0.12
2.1544811725616455,0.04,0.11,0.08,0.14
2.157904863357544,0.1,0.1,0.07,0.15
2.1701948642730713,0.1,0.04,0.14,0.17
2.1783030033111572,0.02,0.06,0.08,0.1
2.188762903213501,-0.02,0.12,0.01,0.12
2.2250921726226807,0.01,0.11,0.15,0.18
2.2265660762786865,0.02,0.07,0.18,0.19
2.2276771068573,-0.08,0.11,0.07,0.15
2.2404580116271973,-0.08,0.14,0.01,0.16
2.2415339946746826,-0.04,0.09,0.03,0.1
2.2544970512390137,-0.01,0.11,0.01,0.11
2.2585361003875732,0.03,0.14,0.06,0.15
2.2703089714050293,0.0,0.09,0.08,0.12
2.279081106185913,-0.05,0.1,0.03,0.11
2.2891080379486084,-0.05,0.16,-0.01,0.16
2.3254220485687256,0.0,0.15,-0.07,0.16
2.3267581462860107,-0.02,0.15,-0.1,0.18
2.3276541233062744,-0.02,0.13,-0.05,0.14
2.3399579524993896,0.02,0.11,-0.02,0.11
2.3409411907196045,0.02,0.12,-0.04,0.12
2.3540849685668945,0.01,0.12,0.01,0.12
2.3590190410614014,-0.02,0.06,0.09,0.11
2.370414972305298,-0.02,0.06,0.12,0.13
2.3796730041503906,-0.03,0.12,0.16,0.2
2.3900229930877686,0.06,0.16,0.25,0.3
2.423527956008911,0.12,0.06,0.4,0.42
2.4250271320343018,0.11,-0.02,0.42,0.43
2.426081895828247,0.08,-0.02,0.38,0.38
2.4408819675445557,0.0,0.01,0.28,0.28
2.4420089721679688,-0.15,0.13,0.18,0.26
2.4543490409851074,-0.22,0.15,0.25,0.36
2.459550142288208,-0.07,0.07,0.26,0.27
2.470695972442627,0.03,0.05,0.17,0.17
2.479901075363159,-0.01,0.06,0.32,0.32
2.4904160499572754,-0.03,0.04,0.56,0.56
2.527804136276245,-0.05,-0.05,0.67,0.67
2.529371976852417,0.14,-0.01,0.61,0.62
2.5304901599884033,0.23,-0.09,0.58,0.63
2.53958797454834,0.19,-0.19,0.61,0.66
2.540743112564087,0.17,-0.08,0.76,0.78
2.5544979572296143,0.04,0.06,0.81,0.81
2.5601630210876465,-0.09,0.11,0.5,0.51
2.5710861682891846,-0.16,0.08,0.02,0.18
2.580698013305664,-0.23,0.08,-0.31,0.39
2.590898036956787,-0.22,0.11,-0.39,0.46
2.6221249103546143,-0.11,0.09,-0.34,0.36
2.6235790252685547,0.01,0.09,-0.45,0.45
2.6246049404144287,0.02,0.11,-0.6,0.61
2.640235185623169,-0.08,0.2,-0.65,0.68
2.6414191722869873,-0.22,0.29,-0.55,0.65
2.6546740531921387,-0.34,0.24,-0.25,0.48
2.660735845565796,-0.42,0.16,-0.1,0.46
2.6710751056671143,-0.51,0.14,0.01,0.52
2.68125319480896,-0.45,0.14,0.04,0.47
2.6915230751037598,-0.34,0.22,0.06,0.4
2.7252230644226074,-0.3,0.17,0.18,0.38
2.7267239093780518,-0.4,0.07,0.15,0.43
2.7278058528900146,-0.48,0.04,0.07,0.48
2.740288019180298,-0.32,0.07,0.13,0.35
2.741450071334839,-0.28,0.04,0.33,0.43
2.7546660900115967,-0.33,-0.09,0.53,0.63
2.7620980739593506,-0.35,-0.14,0.52,0.64
2.771756887435913,-0.37,-0.19,0.41,0.58
2.782027006149292,-0.29,-0.2,0.4,0.53
2.7922630310058594,-0.12,-0.06,0.26,0.29
2.831094980239868,-0.18,0.05,0.23,0.29
2.832598924636841,-0.32,-0.07,0.34,0.47
2.8337299823760986,-0.5,-0.15,0.24,0.57
2.8387720584869385,-0.64,0.11,0.02,0.64
2.841546058654785,-0.63,0.21,-0.11,0.67
2.8554861545562744,-0.81,0.07,0.05,0.81
2.862516164779663,-1.02,-0.18,0.53,1.16
2.8731319904327393,-1.33,-0.48,0.85,1.64
2.88230299949646,-1.48,-0.48,0.68,1.69
2.8926889896392822,-0.88,-0.22,0.4,0.99
2.9274771213531494,-0.03,0.01,0.23,0.23
2.9289891719818115,0.39,0.24,-0.09,0.46
2.9300880432128906,0.46,0.35,-0.62,0.84
2.932002067565918,0.32,0.6,-1.02,1.22
2.942405939102173,0.0,0.54,-0.88,1.03
2.9524571895599365,-0.24,0.22,-0.34,0.47
2.963369131088257,0.09,-0.11,-0.05,0.15
2.9729769229888916,0.62,-0.24,-0.22,0.7
2.9833180904388428,1.02,-0.09,-0.38,1.09
2.9933831691741943,1.24,-0.04,-0.55,1.35
3.0270211696624756,1.63,0.13,-0.65,1.75
3.028517007827759,2.79,0.39,-1.12,3.03
3.0296308994293213,3.23,0.98,-1.54,3.71
3.0395991802215576,3.59,1.26,-0.53,3.84
3.042677164077759,3.66,0.44,-0.38,3.7
3.0553109645843506,1.73,-0.22,-0.43,1.79
3.0634491443634033,0.07,-0.19,-0.94,0.96
3.0738508701324463,-0.27,0.24,-1.02,1.08
3.0841071605682373,-0.28,0.11,-0.8,0.85
3.0947039127349854,-0.51,0.12,-1.01,1.13
3.1279280185699463,-0.21,-0.02,-0.63,0.66
3.129451036453247,-0.14,-0.27,-0.41,0.51
3.130571126937866,-1.29,-0.25,-0.59,1.44
3.1390960216522217,-3.5,-0.86,0.13,3.6
3.143256902694702,-4.51,-0.62,0.85,4.63
3.1552300453186035,-2.33,0.24,0.75,2.45
3.163701057434082,0.38,0.52,-0.44,0.78
3.174504041671753,1.57,0.59,-1.32,2.13
3.1846439838409424,2.02,0.66,-1.0,2.34
3.1945960521698,2.38,0.26,0.23,2.4
3.228639841079712,2.31,-0.18,0.55,2.38
3.230159044265747,1.02,0.02,0.09,1.02
3.231261968612671,0.24,0.45,-0.05,0.51
3.240463972091675,0.62,-0.01,0.95,1.13
3.244201898574829,0.37,-0.22,1.28,1.35
3.254504919052124,-0.24,-0.16,0.69,0.74
3.2647650241851807,-0.32,0.18,-0.39,0.53
3.2752931118011475,0.46,0.38,-0.48,0.76
3.2854549884796143,1.11,0.03,-0.94,1.45
3.2951629161834717,0.82,0.14,-1.64,1.83
3.3290250301361084,0.09,0.33,-1.02,1.07
3.330780029296875,-1.16,-0.05,-0.08,1.16
3.3318979740142822,-2.44,-0.01,-0.2,2.44
3.339233160018921,-2.38,0.97,-0.88,2.71
3.344435930252075,-0.11,1.23,-1.01,1.59
3.3558740615844727,2.31,0.18,0.44,2.35
3.365535020828247,2.09,-1.17,1.48,2.81
3.375933885574341,-0.77,-0.63,0.18,1.01
3.3858799934387207,-2.71,0.97,-0.36,2.9
3.3962371349334717,-2.24,0.33,0.63,2.35
3.429918050765991,-1.61,-0.43,0.5,1.73
3.4314379692077637,-1.23,-0.17,-0.13,1.24
3.4328348636627197,-0.53,0.19,-0.34,0.65
3.43558406829834,-0.01,0.26,-0.14,0.29
3.4453041553497314,0.59,0.16,-0.02,0.61
3.4559240341186523,0.89,0.08,0.06,0.89
3.4654769897460938,-0.03,0.03,0.6,0.6
3.4770419597625732,-1.47,-0.25,1.33,1.99
3.4867031574249268,-2.1,-0.16,1.62,2.65
3.4963769912719727,-0.94,-0.04,1.4,1.68
3.5304620265960693,0.41,-0.19,1.22,1.3
3.531996965408325,1.02,-0.02,0.82,1.3
3.532989025115967,1.19,0.08,0.68,1.37
3.5394279956817627,0.36,0.12,0.77,0.85
3.545696973800659,-0.64,-0.23,1.18,1.36
3.5562469959259033,-0.57,-0.29,0.67,0.92
3.5662500858306885,-0.02,0.17,-0.49,0.51
3.5767219066619873,0.3,0.31,-1.05,1.13
3.5873630046844482,0.75,0.27,-0.97,1.25
3.5969631671905518,1.4,0.14,-0.82,1.62
3.6243510246276855,1.5,0.0,-0.42,1.55
3.6265370845794678,1.27,0.12,-0.52,1.37
3.627673864364624,1.33,0.44,-1.26,1.88
3.641069173812866,0.63,0.31,-0.53,0.87
3.6465799808502197,0.1,-0.13,0.69,0.7
3.6573431491851807,1.0,-0.2,0.74,1.26
3.6673800945281982,1.34,0.01,0.23,1.35
3.677532911300659,0.8,0.08,0.11,0.81
3.6877870559692383,0.39,0.0,0.38,0.54
3.697993040084839,0.08,-0.13,0.65,0.66
3.726255178451538,-0.34,-0.21,0.42,0.57
3.729318857192993,-0.32,-0.32,0.58,0.73
3.731024980545044,0.47,-0.08,-0.65,0.8
3.7410240173339844,0.34,0.59,-1.97,2.08
3.7474420070648193,-1.75,0.54,-1.52,2.38
3.7577569484710693,-2.34,0.36,-1.15,2.63
3.768239974975586,-0.41,0.05,-0.79,0.89
3.7779860496520996,0.88,-0.07,-0.29,0.92
3.788439989089966,1.08,0.06,-0.09,1.08
3.7989020347595215,-0.18,-0.04,0.38,0.42
3.8286430835723877,-2.51,0.07,0.49,2.55
3.831092119216919,-2.7,0.4,0.18,2.73
3.8327648639678955,-0.82,0.32,-0.03,0.88
3.839801073074341,1.06,0.22,-0.61,1.24
3.8486831188201904,0.89,0.15,-0.92,1.28
3.858664035797119,-0.82,0.32,-0.21,0.9
3.868790864944458,-1.03,0.14,0.19,1.05
3.879132032394409,-0.24,-0.07,0.1,0.26
3.8902790546417236,-0.2,0.04,0.28,0.34
3.8994929790496826,-1.57,-0.11,1.13,1.93
3.9292209148406982,-2.89,0.26,1.03,3.07
3.9319980144500732,-3.05,0.24,1.13,3.26
3.9338719844818115,-2.55,0.09,0.97,2.72
3.9387710094451904,-0.99,0.09,0.64,1.18
3.9486491680145264,0.96,-0.01,0.34,1.01
3.9590420722961426,1.29,0.06,0.24,1.31
3.9694459438323975,0.35,0.15,0.09,0.39
3.979292154312134,-0.27,0.2,-0.08,0.34
3.989483118057251,0.08,0.2,-0.31,0.37
3.9998490810394287,0.57,0.06,-0.13,0.58
4.030286073684692,0.25,0.12,-0.06,0.28
4.032274961471558,-0.4,0.12,0.29,0.5
4.033760070800781,-0.75,0.12,0.31,0.82
4.039537191390991,-0.58,0.11,0.23,0.63
4.04926609992981,0.06,0.02,0.24,0.24
4.059507131576538,0.79,-0.14,0.16,0.81
4.069917917251587,1.0,-0.12,0.36,1.06
4.079827070236206,0.67,-0.07,0.72,0.98
4.089892148971558,-0.25,-0.15,0.75,0.8
4.100848913192749,-1.25,0.44,0.27,1.35
4.130565881729126,-1.76,0.52,-0.38,1.87
4.133090019226074,-1.35,0.32,-0.84,1.62
4.13479208946228,-0.24,0.11,-0.92,0.95
4.13999605178833,0.32,0.11,-0.75,0.82
4.15002703666687,0.05,0.27,-0.22,0.35
4.160329103469849,-0.53,0.33,0.25,0.67
4.170608997344971,-0.7,0.17,0.59,0.93
4.1805970668792725,-0.45,0.12,0.71,0.84
4.190859079360962,-0.33,0.07,0.55,0.64
4.200989007949829,-0.49,-0.03,0.27,0.56
4.230579137802124,-0.43,0.27,-0.01,0.5
4.232583045959473,-0.24,0.45,-0.01,0.51
4.234119176864624,-0.26,0.43,-0.25,0.56
4.240577936172485,-0.25,0.46,-0.18,0.55
4.2504918575286865,-0.36,0.51,0.02,0.62
4.261563062667847,-0.69,0.39,0.13,0.8
4.271054983139038,-1.03,0.38,0.17,1.11
4.281324148178101,-1.15,0.35,0.04,1.2
4.291144132614136,-0.75,0.45,0.12,0.88
4.301892042160034,-0.41,0.51,0.06,0.65
4.333068132400513,-0.32,0.72,-0.14,0.8
4.336180925369263,0.02,0.89,-0.05,0.89
4.337828874588013,0.15,0.85,0.03,0.86
4.34069299697876,-0.01,0.76,0.24,0.79
4.351014852523804,-0.1,0.76,0.13,0.77
4.36179518699646,-0.14,0.99,0.11,1.0
4.371413946151733,-0.32,1.4,0.06,1.43
4.381645917892456,-1.14,1.4,0.24,1.82
4.391728162765503,-2.04,1.84,0.52,2.79
4.402602910995483,-2.82,2.47,0.69,3.81
4.432387113571167,-3.59,3.27,0.83,4.92
4.435232877731323,-4.22,3.95,0.96,5.85
4.4368908405303955,-5.06,3.99,0.9,6.5
4.441436052322388,-5.9,3.66,0.61,6.96
4.456964015960693,-6.19,3.8,-0.19,7.26
4.461897134780884,-5.9,4.51,-1.07,7.5
4.472060918807983,-5.73,5.66,-1.59,8.2
4.482281923294067,-6.28,6.45,-1.63,9.14
4.492236852645874,-7.33,7.03,-1.14,10.22
4.503077030181885,-8.48,7.19,-0.16,11.11
4.534204006195068,-8.83,7.25,0.96,11.46
4.53612208366394,-8.26,7.13,1.98,11.08
4.5372021198272705,-6.35,7.37,2.61,10.07
4.541771173477173,-4.35,7.13,3.72,9.14
4.5520899295806885,-4.35,7.74,4.18,9.81
4.562164068222046,-5.48,8.64,4.84,11.31
4.572973966598511,-6.56,7.35,4.64,10.88
4.582924127578735,-7.42,5.54,3.94,10.06
4.593001127243042,-8.02,4.0,4.41,9.98
4.603527069091797,-8.35,2.33,5.47,10.25
4.632122993469238,-7.81,0.32,6.13,9.93
4.634891033172607,-5.2,-1.55,5.22,7.52
4.636543035507202,-1.4,-0.9,3.24,3.64
4.642634153366089,3.15,0.19,0.78,3.25
4.656430006027222,4.77,-0.39,-0.44,4.8
4.663132905960083,-0.24,-0.8,0.63,1.04
4.673703908920288,-5.57,-1.84,2.83,6.51
4.68358302116394,-8.74,-3.48,4.53,10.44
4.6937479972839355,-9.29,-4.98,5.2,11.75
4.704322099685669,-7.48,-5.51,4.34,10.25
4.73352313041687,-4.81,-5.09,2.9,7.57
4.736561059951782,-3.17,-4.48,1.49,5.68
4.738217115402222,-2.78,-3.97,0.6,4.88
4.743020057678223,-3.07,-3.44,0.29,4.61
4.753225088119507,-3.17,-3.11,0.15,4.44
4.7639548778533936,-2.93,-2.91,-0.24,4.13
4.773827075958252,-2.73,-2.82,-0.78,4.0
4.7841620445251465,-2.67,-2.83,-1.03,4.02
4.79411506652832,-2.63,-2.76,-0.92,3.92
4.804910898208618,-2.5,-2.36,-0.73,3.51
4.834472894668579,-2.14,-1.64,-0.63,2.76
4.8377721309661865,-1.49,-0.94,-0.6,1.86
4.84028697013855,-0.84,-0.4,-0.48,1.04
4.843848943710327,-0.5,0.15,-0.28,0.59
4.854074001312256,-0.44,0.74,-0.01,0.86
4.864476919174194,-0.31,1.36,0.33,1.43
4.874672174453735,-0.05,1.9,0.85,2.08
4.885326147079468,0.18,2.55,1.09,2.77
4.8947389125823975,0.32,3.35,1.03,3.51
4.907038927078247,0.45,4.61,0.79,4.69
4.93638014793396,0.85,5.68,0.39,5.75
4.938639879226685,1.57,6.55,0.38,6.74
4.940433025360107,2.4,7.12,0.87,7.56
4.944167852401733,3.28,7.88,1.55,8.67
4.954458951950073,4.39,8.66,2.11,9.93
4.965013027191162,5.67,8.89,2.08,10.74
4.975049018859863,6.75,7.8,0.71,10.33
4.985952138900757,7.08,5.27,-1.03,8.88
4.9954750537872314,7.0,3.1,-1.73,7.84
5.0054771900177,7.22,2.0,-1.96,7.74
5.033202886581421,7.1,1.62,-1.77,7.49
5.035308122634888,6.48,1.79,-1.81,6.96
5.037036180496216,6.21,2.21,-3.88,7.64
5.045057058334351,7.51,1.65,-4.05,8.69
5.057317018508911,9.19,1.2,-3.02,9.74
5.06561017036438,10.53,1.45,-2.5,10.91
5.0758421421051025,11.3,1.51,-2.46,11.66
5.086294889450073,10.63,1.33,-2.62,11.02
5.096995115280151,8.01,1.51,-2.71,8.58
5.106745958328247,5.02,1.34,-1.24,5.34
5.135875940322876,5.66,1.51,-2.39,6.32
5.137810945510864,8.09,3.38,-9.87,13.2
5.139626979827881,1.91,7.99,-11.79,14.36
5.146232843399048,-10.2,12.03,3.37,16.12
5.1561360359191895,-10.47,10.9,4.59,15.79
5.166086912155151,0.17,5.59,-1.94,5.91
5.176313161849976,6.42,3.36,-0.52,7.26
5.186619997024536,8.75,2.1,4.3,9.97
5.196959972381592,12.91,-3.76,1.13,13.49
5.20703911781311,10.55,-3.97,0.32,11.27
5.237375020980835,5.3,-2.88,3.92,7.19
5.2399280071258545,2.78,-1.57,0.24,3.2
5.241662979125977,-0.11,1.41,-3.27,3.56
5.260632038116455,-0.39,2.59,-2.31,3.49
5.2630510330200195,2.27,1.73,-1.88,3.41
5.2735700607299805,4.82,0.6,-2.59,5.5
5.276952028274536,4.76,-0.76,-1.04,4.93
5.289093971252441,2.09,-1.08,1.36,2.71
5.2973949909210205,-0.49,-0.55,2.91,3.0
5.307391881942749,-1.38,-0.19,3.32,3.6
5.337941884994507,-0.85,-0.06,2.27,2.42
5.3400890827178955,0.07,-0.01,0.85,0.85
5.341709852218628,0.71,0.06,-0.21,0.74
5.359864950180054,0.59,0.21,-0.68,0.92
5.362282991409302,-0.16,0.33,-0.6,0.7
5.371752023696899,-0.99,0.33,-0.16,1.05
5.377331972122192,-1.54,0.26,0.42,1.61
5.388922929763794,-1.96,0.44,0.38,2.04
5.397592067718506,-2.36,0.59,0.14,2.43
5.4078710079193115,-2.1,0.22,-0.15,2.11
5.437793970108032,-1.07,0.0,-0.43,1.15
5.439887046813965,-0.26,0.02,-0.44,0.51
5.441417932510376,-0.22,0.03,-0.24,0.32
5.4473888874053955,-0.64,0.01,0.13,0.65
5.458310842514038,-1.2,0.21,0.19,1.23
5.468220949172974,-0.88,0.63,0.12,1.08
5.478157997131348,-0.09,0.57,-0.01,0.57
5.488595962524414,0.29,0.39,-0.13,0.5
5.498481035232544,0.07,0.34,-0.16,0.38
5.509346961975098,-0.35,0.36,-0.25,0.56
5.5379798412323,-0.71,0.46,-0.12,0.85
5.54109787940979,-1.1,0.36,-0.17,1.16
5.542772054672241,-1.51,0.22,-0.11,1.52
5.547749996185303,-1.77,0.3,0.07,1.79
5.55864405632019,-2.01,0.72,0.11,2.13
5.568885087966919,-2.24,1.24,0.1,2.56
5.578582048416138,-2.1,1.27,0.17,2.46
5.5889551639556885,-1.68,1.22,0.07,2.07
5.598989963531494,-1.6,1.36,-0.1,2.1
5.609416961669922,-1.82,1.69,-0.18,2.49
5.638291120529175,-2.18,1.71,-0.5,2.81
5.640454053878784,-2.7,1.44,-1.08,3.24
5.6420769691467285,-2.73,1.28,-1.69,3.45
5.659105062484741,-2.39,1.32,-1.64,3.18
5.660690069198608,-2.53,1.79,-0.73,3.18
5.672873020172119,-3.66,3.08,0.69,4.83
5.679162979125977,-5.17,4.07,1.76,6.81
5.689481973648071,-6.06,4.62,1.95,7.86
5.699562072753906,-6.56,5.57,1.31,8.7
5.710078954696655,-7.54,6.64,0.35,10.05
5.739339113235474,-8.93,7.35,-0.76,11.59
5.741945028305054,-10.46,8.21,-1.1,13.34
5.743609189987183,-12.79,9.41,-1.11,15.91
5.760464906692505,-14.68,9.58,-0.77,17.54
5.762948036193848,-14.99,9.22,0.61,17.6
5.772816896438599,-12.7,9.22,2.0,15.82
5.7801079750061035,-7.43,10.03,2.67,12.76
5.790117025375366,-0.66,10.22,2.8,10.61
5.8000571727752686,3.13,10.59,3.31,11.52
5.810641050338745,-1.03,9.52,6.44,11.53
5.842637062072754,-7.4,6.11,7.0,11.87
5.845520973205566,-10.4,3.1,5.75,12.28
5.847146034240723,-10.4,0.75,4.85,11.49
5.858411073684692,-9.45,-0.7,4.77,10.6
5.860944986343384,-6.8,0.42,5.72,8.89
5.8739049434661865,-0.94,2.96,2.82,4.19
5.880413055419922,6.13,0.9,-1.44,6.36
5.890784025192261,6.88,-0.87,0.37,6.94
5.900696039199829,-0.69,-0.72,2.6,2.78
5.9112389087677,-5.96,-2.19,4.34,7.69
5.941199064254761,-8.98,-5.06,4.75,11.34
5.9433581829071045,-10.71,-6.7,3.06,12.99
5.945072889328003,-10.23,-6.23,0.87,12.0
5.95919394493103,-7.25,-4.76,-0.42,8.68
5.960978984832764,-4.64,-3.62,-0.66,5.92
5.973795175552368,-3.4,-3.18,-0.52,4.68
5.980998992919922,-3.24,-3.23,-0.08,4.57
5.991374969482422,-3.34,-3.55,0.39,4.88
6.0014989376068115,-3.08,-4.14,0.55,5.18
6.011852025985718,-2.57,-4.47,0.35,5.16
6.042773008346558,-2.41,-3.99,-0.11,4.66
6.0456459522247314,-2.36,-3.08,-0.51,3.91
6.047289133071899,-2.22,-2.44,-0.53,3.34
6.0595691204071045,-2.0,-2.06,0.01,2.87
6.062283039093018,-1.64,-1.82,0.79,2.57
6.072767972946167,-1.36,-1.27,1.25,2.24
6.081956148147583,-1.04,-0.23,1.29,1.67
6.0919411182403564,-0.36,1.55,1.02,1.89
6.102311849594116,1.0,3.3,0.47,3.48
6.112046003341675,2.67,5.23,0.41,5.88
6.140789985656738,4.12,7.04,0.85,8.2
6.143025159835815,5.27,7.97,1.57,9.68
6.1447389125823975,6.15,9.11,2.04,11.17
6.162005186080933,6.93,10.36,1.93,12.61
6.164550065994263,7.77,10.94,1.76,13.53
6.172652006149292,8.48,10.4,2.54,13.65
6.182378053665161,8.4,8.73,3.68,12.66
6.192205190658569,7.53,6.24,2.47,10.08
6.202812910079956,7.51,4.6,-1.56,8.94
6.212824106216431,9.88,3.69,-3.55,11.12
6.24154806137085,13.77,3.24,-3.63,14.6
6.243736982345581,17.29,3.4,-5.63,18.49
6.245392084121704,19.35,3.14,-6.29,20.58
6.261790990829468,21.11,1.23,-7.55,22.45
6.26428484916687,20.78,3.37,-10.29,23.43
6.273053884506226,12.17,6.15,-14.1,19.61
6.28270697593689,-5.24,11.0,-14.09,18.62
6.293223142623901,-20.96,19.48,-3.35,28.8
6.303311109542847,-16.57,14.08,-1.52,21.79
6.313416957855225,2.28,0.16,1.89,2.96
6.343019008636475,6.76,0.04,4.37,8.04
6.345079183578491,9.39,1.55,7.8,12.3
6.3467371463775635,17.43,-5.0,3.29,18.42
6.35881495475769,16.63,-4.1,-0.11,17.12
6.362886190414429,6.09,-2.95,3.0,7.4
6.374106168746948,1.39,-1.12,-3.2,3.66
6.383341073989868,-0.48,1.5,-3.72,4.03
6.393714189529419,0.39,2.72,-2.27,3.56
6.404032945632935,3.77,2.21,-2.89,5.23
6.414177179336548,6.01,0.41,-2.43,6.49
6.443938970565796,3.5,-0.85,-0.9,3.71
6.446299076080322,-0.15,-0.42,1.01,1.1
6.447926998138428,-1.78,0.28,2.09,2.75
6.458060026168823,-1.21,0.45,2.16,2.51
6.463430166244507,0.05,0.43,0.98,1.07
6.4745800495147705,1.06,0.08,0.11,1.06
6.483994007110596,1.54,-0.15,-0.2,1.56
6.494293928146362,1.29,-0.03,-0.03,1.29
6.504561185836792,0.42,0.11,0.17,0.46
6.515363931655884,-0.5,0.12,0.3,0.59
6.5399329662323,-1.01,0.24,0.3,1.08
6.541697978973389,-1.23,0.38,0.32,1.32
6.543691873550415,-1.46,0.37,0.29,1.53
6.561182975769043,-1.55,0.25,-0.13,1.57
6.564366102218628,-1.49,0.09,-0.45,1.55
6.5748090744018555,-1.32,0.28,-1.12,1.75
6.584871053695679,-0.9,0.27,-1.02,1.38
6.595116853713989,-0.62,-0.02,-0.79,1.0
6.6054229736328125,-0.06,-0.29,-0.27,0.4
6.615553140640259,-0.02,0.26,-0.08,0.27
6.645714044570923,-0.39,1.06,0.16,1.14
6.648327112197876,-0.84,1.07,0.06,1.36
6.650046110153198,-1.22,0.65,0.14,1.38
6.658386945724487,-1.66,0.42,0.18,1.72
6.664698839187622,-2.11,0.38,0.02,2.14
6.675366163253784,-2.21,0.3,-0.16,2.23
6.685590982437134,-2.18,0.42,-0.24,2.23
6.695742845535278,-2.31,0.89,-0.08,2.47
6.705574989318848,-2.39,1.52,0.31,2.84
6.716008901596069,-2.33,1.89,0.81,3.1
6.746010065078735,-2.52,2.13,0.97,3.43
6.748853921890259,-2.95,2.49,0.99,3.98
6.750488996505737,-3.43,2.69,0.35,4.37
6.758352994918823,-3.54,2.86,-0.5,4.57
6.765625,-3.4,3.02,-0.85,4.62
6.776158094406128,-3.97,3.24,-0.74,5.17
6.786815881729126,-5.04,3.68,-0.1,6.24
6.7965171337127686,-5.76,4.21,0.5,7.15
6.806809186935425,-6.18,5.12,0.62,8.04
6.816915035247803,-7.04,6.06,0.4,9.29
6.847692966461182,-8.39,6.34,0.13,10.51
6.8506059646606445,-10.16,6.22,0.08,11.91
6.85231614112854,-12.57,6.25,0.42,14.04
6.858927011489868,-14.62,6.7,0.91,16.1
6.866283178329468,-14.92,7.23,1.57,16.65
6.876760005950928,-12.68,8.03,1.67,15.1
6.88725209236145,-8.16,9.42,1.73,12.58
6.8969340324401855,-2.12,11.4,0.68,11.61
6.90726113319397,1.69,12.04,2.97,12.51
6.917514085769653,-2.43,11.12,7.66,13.71
6.949750185012817,-8.82,8.39,7.12,14.1
6.951863050460815,-11.28,4.69,5.04,13.21
6.953557014465332,-11.18,2.05,4.27,12.14
6.956739187240601,-9.94,1.36,4.29,10.91
6.974945068359375,-7.08,2.13,5.16,9.01
6.977694988250732,-1.38,4.5,3.32,5.75
6.989364862442017,8.3,2.66,-2.57,9.08
6.9971349239349365,13.58,-0.63,-1.61,13.68
7.007593870162964,4.97,-0.26,2.02,5.37
7.017616033554077,-3.41,-0.73,3.53,4.96
7.0474841594696045,-6.15,-3.62,4.39,8.37
7.049360036849976,-8.23,-6.23,3.75,10.98
7.050862073898315,-10.13,-7.23,1.94,12.59
7.057823896408081,-10.11,-6.02,0.39,11.77
7.067272901535034,-7.76,-4.74,0.32,9.09
7.07758903503418,-5.74,-4.09,0.94,7.11
7.087841033935547,-4.32,-3.99,1.01,5.96
7.098224878311157,-3.22,-4.43,0.67,5.51
7.107989072799683,-2.77,-4.83,0.19,5.57
7.118489980697632,-2.94,-5.01,-0.22,5.81
7.148522138595581,-2.96,-5.14,-0.46,5.94
7.150616884231567,-2.7,-4.98,-0.7,5.7
7.152201890945435,-2.57,-4.4,-0.93,5.17
7.158077955245972,-2.45,-3.62,-1.24,4.54
7.167938947677612,-1.94,-2.88,-1.45,3.76
7.1778528690338135,-1.09,-2.4,-1.19,2.89
7.188529968261719,-0.41,-2.08,-0.55,2.19
7.198763132095337,-0.14,-1.22,-0.22,1.24
7.208556890487671,0.08,0.51,-0.44,0.67
7.2191321849823,0.85,2.42,-0.53,2.61
7.250085115432739,2.02,4.75,-0.35,5.17
7.252593040466309,3.5,6.98,0.14,7.8
7.25424599647522,4.93,9.25,0.75,10.5
7.258951902389526,6.42,10.88,1.14,12.68
7.274093866348267,8.05,12.1,1.29,14.59
7.27953314781189,9.6,12.6,0.71,15.85
7.290423154830933,10.59,11.58,-0.25,15.69
7.2993199825286865,11.05,9.46,0.19,14.54
7.30915093421936,11.47,6.62,0.91,13.27
7.319952964782715,11.7,4.56,-2.0,12.71
7.35108494758606,12.49,4.03,-4.11,13.75
7.353682994842529,14.82,4.68,-3.21,15.86
7.355393171310425,16.7,4.87,-4.49,17.96
7.3590710163116455,16.84,3.99,-5.27,18.09
7.368896007537842,18.7,2.62,-7.51,20.32
7.380014181137085,15.99,1.69,-9.82,18.84
7.389908075332642,-1.04,3.19,-8.67,9.29
7.399827003479004,-17.83,13.09,-4.46,22.56
7.410425901412964,-22.14,19.36,-3.58,29.62
7.420614004135132,-6.06,7.34,-0.62,9.53
7.4513099193573,7.19,-1.04,1.3,7.38
7.453462839126587,10.93,1.21,-0.95,11.03
7.454938173294067,13.86,1.99,4.02,14.56
7.459576845169067,18.31,-4.08,5.53,19.55
7.473998069763184,14.07,-3.98,2.64,14.85
7.480139970779419,3.13,-1.31,1.74,3.81
7.489964962005615,-1.63,-0.19,-3.09,3.49
7.500625848770142,-3.22,2.37,-4.11,5.73
7.510845899581909,-1.12,2.84,-2.78,4.12
7.523571014404297,3.31,1.73,-2.73,4.62
7.547811031341553,5.78,-0.18,-1.61,6.0
7.549844980239868,4.3,-1.61,0.46,4.61
7.551599025726318,0.74,-0.94,1.77,2.13
7.559954881668091,-1.8,0.36,2.36,2.98
7.570219039916992,-2.19,0.75,2.34,3.29
7.580965995788574,-1.21,0.61,0.95,1.65
7.590696096420288,0.19,0.28,-0.37,0.5
7.60126519203186,1.23,0.05,-0.78,1.45
7.611172914505005,1.2,0.16,-0.65,1.37
7.621732950210571,0.3,0.43,0.0,0.52
7.650936841964722,-0.81,0.53,0.59,1.13
7.653795957565308,-1.47,0.5,0.7,1.7
7.6565258502960205,-1.72,0.38,0.7,1.89
7.660670042037964,-1.85,0.12,0.37,1.89
7.6736860275268555,-1.67,-0.18,-0.3,1.7
7.6812121868133545,-1.23,-0.08,-0.74,1.43
7.691545009613037,-0.65,-0.02,-0.77,1.0
7.70162296295166,-0.54,-0.35,-0.53,0.83
7.7116920948028564,-0.58,-0.38,-0.23,0.73
7.722146034240723,-0.66,0.07,0.04,0.66
7.7531960010528564,-0.61,0.63,0.16,0.89
7.755519151687622,-0.5,0.92,0.46,1.14
7.757301092147827,-0.68,0.59,0.3,0.94
7.76109504699707,-1.24,0.67,-0.01,1.4
7.771458864212036,-1.84,0.72,-0.19,1.98
7.782103061676025,-2.32,0.67,-0.55,2.47
7.792257070541382,-2.44,0.76,-0.63,2.63
7.80218505859375,-2.29,1.07,-0.51,2.57
7.812211990356445,-2.25,1.58,-0.36,2.77
7.8230040073394775,-2.48,2.15,0.05,3.28
7.851657152175903,-3.12,2.7,0.27,4.13
7.854269981384277,-3.55,2.76,0.25,4.5
7.8559730052948,-3.15,2.68,-0.17,4.13
7.8619701862335205,-2.31,2.9,-0.3,3.71
7.872537851333618,-2.45,3.25,0.22,4.07
7.882474184036255,-3.62,3.51,0.99,5.13
7.893054962158203,-4.99,3.83,1.5,6.46
7.903220891952515,-6.05,4.35,1.58,7.61
7.912769079208374,-6.72,5.07,1.12,8.49
7.9234490394592285,-7.57,5.51,0.52,9.37
7.955338001251221,-8.69,5.99,0.24,10.55
7.958510160446167,-10.5,6.4,0.58,12.31
7.960898160934448,-12.74,6.9,1.0,14.52
7.963696002960205,-14.29,7.69,1.83,16.33
7.972580194473267,-14.53,8.35,2.37,16.92
7.982598066329956,-11.91,9.18,2.82,15.29
7.993066072463989,-6.19,11.17,2.91,13.09
8.003566980361938,0.04,11.73,2.57,12.0
8.013570070266724,0.4,11.45,4.96,12.48
8.023536920547485,-5.4,9.38,6.63,12.69
8.051526069641113,-9.26,5.35,5.37,11.96
8.053482055664062,-10.2,2.46,4.22,11.3
8.05474305152893,-10.19,1.09,4.06,11.02
8.063120126724243,-8.87,0.46,5.78,10.59
8.073744058609009,-4.96,1.31,6.7,8.43
8.083911180496216,2.37,2.13,0.47,3.22
8.093939065933228,9.99,-0.12,-2.37,10.26
8.104665994644165,6.63,-1.49,1.11,6.88
8.114057064056396,-2.81,-1.29,2.98,4.29
8.124488115310669,-6.87,-3.49,3.78,8.58
8.154625177383423,-9.23,-6.01,2.53,11.3
8.157230138778687,-10.71,-6.53,0.3,12.54
8.159281969070435,-9.24,-5.02,-1.25,10.58
8.163490056991577,-6.15,-3.61,-1.03,7.2
8.173991918563843,-4.41,-3.01,-0.41,5.35
8.184383153915405,-3.8,-3.03,-0.14,4.86
8.194331884384155,-3.25,-3.54,0.07,4.8
8.204993963241577,-2.78,-4.11,0.17,4.96
8.21454906463623,-2.72,-4.38,-0.01,5.15
8.225192070007324,-2.95,-4.06,-0.62,5.05
8.255215883255005,-3.11,-3.37,-1.12,4.72
8.257997035980225,-2.9,-2.77,-1.11,4.16
8.259660959243774,-2.64,-2.18,-0.54,3.46
8.27794098854065,-2.53,-1.67,0.24,3.04
8.280480146408081,-2.49,-0.93,0.83,2.78
8.29169487953186,-2.4,0.14,0.89,2.56
8.295140981674194,-1.99,1.83,0.63,2.77
8.306972026824951,-0.78,3.39,0.26,3.48
8.314969062805176,0.61,4.93,0.31,4.97
8.325338125228882,1.4,6.91,0.92,7.11
8.351233959197998,1.8,8.17,1.28,8.46
8.35359501838684,2.11,9.68,1.61,10.03
8.355529069900513,3.16,11.6,2.01,12.18
8.365642070770264,5.11,11.97,2.92,13.33
8.375112056732178,6.58,10.42,3.93,12.93
8.385271072387695,6.59,8.11,3.16,10.91
8.395930051803589,5.8,5.72,0.0,8.14
8.405914068222046,7.02,4.9,-2.38,8.88
8.415901899337769,11.19,4.91,-1.81,12.35
8.426429033279419,15.22,4.69,-2.3,16.09
8.455454111099243,18.06,3.71,-4.73,19.03
8.457371950149536,19.28,2.05,-5.34,20.11
8.459089994430542,19.11,0.98,-5.06,19.79
8.478627920150757,18.3,0.93,-5.2,19.04
8.481146097183228,16.8,1.56,-5.44,17.72
8.491677045822144,12.57,2.41,-4.87,13.69
8.49632716178894,6.78,2.98,-6.93,10.14
8.507959127426147,3.45,4.85,-14.51,15.68
8.517204999923706,-7.75,7.18,-15.66,18.89
8.528724908828735,-19.97,17.45,-5.22,27.02
8.553212881088257,-6.57,13.18,-0.1,14.72
8.555486917495728,9.64,0.8,2.51,9.99
8.557249069213867,9.66,6.11,3.47,11.94
8.565839052200317,11.05,7.73,8.06,15.71
8.576276063919067,16.55,-1.67,0.46,16.64
8.586995840072632,8.38,-2.95,1.56,9.02
8.596657037734985,-0.73,-5.92,9.36,11.09
8.60741400718689,-2.61,-2.62,6.5,7.47
8.61715817451477,-2.79,0.71,-3.92,4.86
8.62726616859436,1.46,2.34,-9.89,10.26
8.655784845352173,8.33,1.81,-5.38,10.08
8.658262968063354,11.08,0.76,-3.14,11.54
8.65992283821106,8.05,-0.52,-2.38,8.41
8.677965879440308,1.93,-1.41,0.03,2.39
8.680442094802856,-3.04,-0.59,2.3,3.85
8.691272020339966,-4.81,0.48,3.61,6.03
8.697566986083984,-3.44,0.7,2.62,4.38
8.707787990570068,-0.64,0.24,0.86,1.09
8.717901945114136,1.36,-0.2,-0.94,1.66
8.72809386253357,2.1,-0.34,-1.64,2.68
8.758134126663208,1.77,-0.14,-1.4,2.26
8.760668992996216,0.49,0.18,-0.83,0.98
8.76232099533081,-1.03,0.44,-0.02,1.12
8.77701997756958,-2.11,0.36,0.67,2.24
8.778740167617798,-2.52,0.13,0.75,2.63
8.79105806350708,-2.27,-0.11,0.35,2.29
8.797952890396118,-1.58,-0.04,-0.37,1.62
8.808204889297485,-0.79,0.0,-0.73,1.07
8.81808590888977,-0.52,0.06,-0.58,0.78
8.828581094741821,-0.92,0.11,0.11,0.93
8.859173059463501,-1.38,0.44,0.6,1.56
8.861931085586548,-1.48,1.3,0.96,2.19
8.863635063171387,-1.42,2.02,0.85,2.61
8.879613161087036,-1.4,1.73,0.74,2.34
8.882423162460327,-1.5,1.14,-0.15,1.89
8.892318964004517,-1.89,1.13,-0.93,2.39
8.898498058319092,-2.51,1.27,-1.84,3.36
8.908967971801758,-2.6,1.18,-1.8,3.37
8.919149160385132,-2.63,1.38,-1.66,3.4
8.92894697189331,-2.71,2.34,-0.74,3.65
8.958799123764038,-3.31,3.02,0.55,4.51
8.960945844650269,-3.89,3.16,1.55,5.24
8.962525129318237,-3.92,2.97,1.81,5.24
8.979388952255249,-3.42,2.79,1.17,4.56
8.98173999786377,-2.96,3.1,0.74,4.34
8.991826057434082,-3.64,3.47,1.0,5.12
8.999306917190552,-5.16,3.76,1.08,6.47
9.009473085403442,-6.38,4.08,1.1,7.65
9.019892930984497,-7.15,4.38,0.92,8.43
9.029907941818237,-7.95,4.93,0.32,9.36
9.05933403968811,-9.23,6.04,-0.14,11.03
9.061872005462646,-11.25,7.22,-0.16,13.36
9.06351900100708,-14.18,8.09,-0.26,16.32
9.078338861465454,-17.16,7.86,-0.23,18.87
9.080832958221436,-16.14,6.88,0.44,17.55
9.091552972793579,-12.2,7.49,0.54,14.32
9.09967303276062,-7.05,9.57,1.42,11.97
9.110041856765747,-0.47,12.53,3.07,12.9
9.120640993118286,2.92,13.3,4.64,14.38
9.13061785697937,-1.75,10.93,6.99,13.09
9.159362077713013,-7.47,6.69,5.84,11.6
9.161381959915161,-10.3,3.72,5.28,12.15
9.163028955459595,-11.1,1.51,5.01,12.27
9.178084135055542,-10.01,0.27,5.93,11.63
9.180611848831177,-6.31,1.54,7.49,9.91
9.191992998123169,0.5,2.85,2.56,3.86
9.20059609413147,9.26,1.14,-3.0,9.8
9.21062684059143,10.93,-1.74,-0.53,11.08
9.221349000930786,1.12,-1.55,2.14,2.86
9.231085062026978,-4.77,-2.92,3.93,6.83
9.261805057525635,-7.22,-5.42,4.98,10.31
9.264876127243042,-8.87,-7.38,3.02,11.92
9.26649785041809,-9.31,-7.53,-0.16,11.97
9.277021169662476,-8.23,-5.35,-1.99,10.01
9.280982971191406,-6.56,-3.7,-1.47,7.67
9.291596174240112,-5.02,-3.61,-0.15,6.18
9.301110982894897,-3.8,-4.13,0.62,5.64
9.311362981796265,-3.03,-4.77,0.85,5.71
9.322071075439453,-2.96,-5.27,0.55,6.06
9.332170963287354,-3.21,-5.6,0.15,6.45
9.36088490486145,-3.4,-5.22,-0.18,6.23
9.363254070281982,-3.51,-4.1,-0.51,5.42
9.364883184432983,-3.48,-2.66,-1.16,4.53
9.376147031784058,-3.0,-1.66,-1.45,3.72
9.381284952163696,-2.15,-1.23,-0.79,2.59
9.392690896987915,-1.28,-0.98,0.05,1.61
9.40174412727356,-0.77,-0.17,0.09,0.79
9.411931037902832,-0.17,1.22,-0.63,1.38
9.422428846359253,0.51,3.74,-1.41,4.02
9.432592153549194,2.03,5.73,-2.14,6.44
9.46210503578186,3.81,7.64,-2.06,8.78
9.464667081832886,5.53,8.63,-1.62,10.37
9.46633005142212,7.01,9.08,-0.83,11.5
9.476393938064575,8.05,9.65,-0.42,12.57
9.481887102127075,8.55,9.54,-1.04,12.85
9.49232006072998,8.57,9.01,-1.07,12.48
9.502189874649048,8.75,8.27,0.44,12.04
9.51302695274353,9.16,6.59,0.95,11.32
9.522411108016968,10.09,5.15,-2.32,11.56
9.533074140548706,13.63,4.62,-4.52,15.08
9.559195041656494,18.39,4.62,-3.3,19.24
9.561338186264038,19.74,5.29,-2.63,20.6
9.563131093978882,18.88,3.73,-3.64,19.58
9.579654932022095,18.04,3.14,-3.67,18.67
9.582933187484741,14.25,3.06,-6.77,16.07
9.592994928359985,0.66,4.43,-10.14,11.08
9.60311484336853,-14.57,17.41,-2.29,22.81
9.613492965698242,-14.25,23.11,0.16,27.15
9.62331509590149,2.0,12.3,2.22,12.65
9.633919954299927,11.9,1.99,2.65,12.35
9.663043975830078,15.63,-1.63,-9.87,18.55
9.665884971618652,9.57,-4.17,-1.84,10.59
9.667562007904053,5.76,-6.45,7.86,11.68
9.67743706703186,6.21,-6.23,8.54,12.26
9.683540105819702,3.76,-3.04,1.8,5.15
9.693510055541992,2.02,1.1,-4.69,5.22
9.703602075576782,1.83,3.63,-5.33,6.7
9.713783025741577,1.66,4.19,-4.11,6.09
9.724188089370728,1.96,1.83,-2.63,3.75
9.734591007232666,2.6,-0.59,-1.25,2.94
9.763666868209839,2.4,-1.37,0.25,2.77
9.766535997390747,0.84,-0.79,1.89,2.21
9.768229961395264,-0.99,0.26,2.87,3.04
9.777431964874268,-1.68,0.54,3.19,3.64
9.784004926681519,-1.0,0.08,2.21,2.42
9.794241189956665,0.11,-0.25,0.46,0.53
9.804322004318237,0.7,-0.01,-0.69,0.98
9.814269065856934,0.42,0.36,-0.82,0.98
9.824690103530884,-0.57,0.65,-0.45,0.97
9.834943056106567,-1.57,0.68,0.25,1.72
9.865731954574585,-2.0,0.5,0.82,2.21
9.868512868881226,-2.07,0.51,0.92,2.32
9.87062406539917,-2.35,0.41,1.02,2.59
9.876443147659302,-2.4,0.19,0.46,2.45
9.884862184524536,-1.68,-0.07,-0.35,1.71
9.894698858261108,-0.87,-0.1,-0.64,1.08
9.905119180679321,-0.28,-0.09,-0.17,0.33
9.915050029754639,-0.1,0.26,-0.15,0.31
9.92513918876648,-0.2,1.41,0.11,1.42
9.935284852981567,-0.61,1.56,0.54,1.75
9.966394186019897,-1.18,0.81,0.08,1.43
9.968863010406494,-1.75,0.72,-0.06,1.89
9.970554113388062,-2.33,0.99,-0.39,2.56
9.976319074630737,-2.52,1.18,-0.81,2.89
9.984899997711182,-2.55,1.43,-0.97,3.08
9.995810985565186,-2.85,1.72,-0.95,3.46
10.005555868148804,-3.3,2.06,-0.78,3.96
10.015516996383667,-3.84,2.44,-0.42,4.56
10.02590799331665,-4.33,2.91,-0.19,5.22
10.035722970962524,-4.57,3.18,0.07,5.56
10.064050912857056,-4.56,3.2,0.04,5.57
10.066163063049316,-4.5,3.44,0.18,5.66
10.067828893661499,-5.06,3.85,0.8,6.4
10.076766967773438,-6.21,4.27,1.56,7.69
10.085838079452515,-7.47,4.89,2.09,9.16
10.096390008926392,-8.73,5.77,2.34,10.72
10.106374025344849,-10.2,6.96,2.3,12.56
10.116311073303223,-12.31,7.87,2.03,14.75
10.126464128494263,-15.66,8.29,1.35,17.77
10.13688588142395,-17.55,8.22,0.84,19.39
10.166709184646606,-15.58,8.32,0.89,17.68
10.168800115585327,-11.38,10.58,1.2,15.58
10.17048192024231,-4.39,13.52,1.37,14.28
10.176966905593872,2.46,13.34,1.91,13.69
10.18610692024231,0.86,11.61,5.59,12.91
10.196408033370972,-7.04,8.83,6.52,13.03
10.206610918045044,-11.38,5.08,5.35,13.56
10.216861009597778,-12.89,2.06,4.66,13.86
10.22682499885559,-12.17,0.89,4.87,13.13
10.237377882003784,-7.97,1.49,6.83,10.6
10.267850160598755,-1.1,3.5,1.84,4.1
10.270380973815918,8.88,1.86,-4.66,10.19
10.272089004516602,11.52,-1.75,-0.76,11.67
10.27665901184082,0.88,-1.39,2.22,2.76
10.292033910751343,-5.84,-2.73,4.16,7.67
10.29725193977356,-8.99,-6.05,3.85,11.49
10.308537006378174,-11.28,-7.57,1.74,13.69
10.317316055297852,-11.78,-6.38,-0.37,13.4
10.327708959579468,-8.15,-4.5,-0.95,9.35
10.338121175765991,-4.84,-3.68,-0.14,6.08
10.36942195892334,-3.69,-3.64,0.31,5.19
10.372412919998169,-3.48,-4.15,0.59,5.44
10.374065160751343,-3.73,-4.75,0.82,6.09
10.377177000045776,-4.15,-4.94,0.69,6.48
10.3873450756073,-4.08,-4.53,0.36,6.1
10.397534132003784,-3.8,-3.78,-0.04,5.36
10.407665967941284,-3.54,-2.82,-0.36,4.54
10.417999982833862,-3.15,-2.05,-0.19,3.76
10.427879095077515,-2.6,-1.34,0.47,2.96
10.438562154769897,-2.18,-0.4,0.85,2.37
10.467357873916626,-1.62,1.04,0.38,1.96
10.46945595741272,-0.37,2.84,-0.86,2.99
10.470886945724487,1.64,4.85,-2.08,5.52
10.477385997772217,4.1,6.36,-3.15,8.19
10.487926006317139,6.26,7.18,-3.19,10.04
10.49869704246521,7.68,8.23,-3.21,11.7
10.508968114852905,8.76,9.08,-3.2,13.01
10.518341064453125,9.56,10.35,-2.6,14.32
10.529006958007812,10.27,11.04,-1.71,15.17
10.539383172988892,10.86,10.32,-0.3,14.98
10.56735110282898,10.85,9.33,1.64,14.4
10.569452047348022,10.19,6.21,2.46,12.18
10.5711669921875,10.35,4.74,-0.55,11.39
10.578410863876343,13.26,3.89,-3.0,14.14
10.589241981506348,16.98,3.22,-1.55,17.35
10.598932027816772,17.92,3.09,-1.89,18.28
10.608761072158813,17.22,2.46,-2.58,17.58
10.619198083877563,16.33,2.11,-3.23,16.77
10.629181146621704,16.6,3.48,-5.82,17.93
10.639951944351196,8.8,3.79,-8.98,13.13
10.669573068618774,-8.42,8.39,-8.31,14.5
10.67176103591919,-22.62,20.25,-3.21,30.52
10.673487901687622,-13.55,16.15,-0.09,21.08
10.67890191078186,7.52,2.77,5.48,9.7
10.69217300415039,13.86,0.57,8.27,16.14
10.699225187301636,18.92,-4.01,1.08,19.37
10.709584951400757,19.03,-3.88,-3.77,19.78
10.719779968261719,8.74,-2.76,2.87,9.6
10.729767084121704,2.8,-3.02,5.77,7.08
10.740729093551636,-1.25,-0.65,-1.99,2.43
10.770361185073853,-3.38,2.2,-6.97,8.05
10.772852182388306,0.22,3.32,-3.23,4.63
10.77449107170105,5.48,1.41,-1.88,5.96
10.779185056686401,7.79,-0.02,-3.74,8.64
10.789931058883667,5.85,-0.76,-2.64,6.46
10.800122022628784,1.42,-0.52,0.5,1.59
10.809967041015625,-1.57,-0.02,2.74,3.15
10.820507049560547,-2.47,0.41,3.21,4.07
10.83030915260315,-1.37,0.38,2.3,2.7
10.840887069702148,0.41,0.17,0.98,1.07
10.870597124099731,1.6,0.01,0.01,1.6
10.873801946640015,1.61,0.23,-0.38,1.67
10.875829935073853,0.81,0.54,-0.17,0.98
10.879748106002808,-0.75,0.67,0.14,1.01
10.890120029449463,-2.07,0.81,0.39,2.25
10.900838136672974,-2.45,0.77,0.47,2.61
10.910661935806274,-2.27,0.72,0.16,2.38
10.921066045761108,-2.0,0.65,0.09,2.1
10.931298017501831,-1.46,0.69,-1.06,1.93
10.94173789024353,-1.25,0.78,-1.23,1.91
10.97058892250061,-1.41,0.6,-0.98,1.81
10.972472906112671,-1.4,0.42,-0.57,1.56
10.97411298751831,-1.12,0.32,-0.01,1.16
10.980765104293823,-0.99,0.35,0.21,1.07
10.990864038467407,-0.83,1.28,0.45,1.59
11.001633882522583,-1.36,1.9,0.3,2.35
11.012178182601929,-2.24,1.45,0.18,2.67
11.021890878677368,-2.87,1.08,0.04,3.06
11.031635046005249,-3.06,1.06,-0.27,3.24
11.042081117630005,-2.9,1.26,-0.51,3.2
11.071545839309692,-2.87,1.59,-0.47,3.31
11.073496103286743,-3.36,2.02,-0.18,3.92
11.075159072875977,-4.06,2.58,0.24,4.81
11.081287145614624,-4.53,2.98,0.49,5.44
11.091493844985962,-4.68,2.93,0.3,5.52
11.102045059204102,-4.42,2.85,0.15,5.26
11.111778974533081,-4.28,3.11,0.51,5.31
11.122261047363281,-5.02,3.48,1.46,6.28
11.132099866867065,-6.56,3.96,2.51,8.06
11.14261794090271,-7.98,4.54,2.93,9.63
11.171911001205444,-9.1,5.31,2.77,10.89
11.174326181411743,-10.61,6.25,2.45,12.55
11.176061868667603,-13.02,7.05,1.95,14.93
11.181577920913696,-15.24,7.76,1.05,17.13
11.192129850387573,-15.04,8.41,0.72,17.24
11.202460050582886,-11.84,9.32,0.9,15.09
11.212409019470215,-6.79,11.34,0.57,13.22
11.223422050476074,-0.9,12.02,1.56,12.15
11.233293056488037,0.49,12.07,3.03,12.45
11.243221998214722,-5.47,11.8,5.15,13.98
11.27252984046936,-10.05,7.51,5.28,13.61
11.275502920150757,-10.19,3.54,5.13,11.94
11.277836084365845,-8.49,1.66,4.74,9.86
11.282128095626831,-6.31,3.59,5.1,8.87
11.29289984703064,-1.11,5.72,2.58,6.37
11.303076982498169,5.09,2.59,1.71,5.96
11.313038110733032,7.0,-0.76,1.76,7.25
11.323271989822388,2.11,-1.56,1.92,3.25
11.333464860916138,-3.26,-2.54,1.64,4.44
11.343517065048218,-6.66,-4.15,0.75,7.88
11.371738195419312,-10.06,-4.86,-0.48,11.18
11.373932123184204,-12.29,-4.46,-0.84,13.1
11.375691175460815,-10.92,-3.93,0.03,11.6
11.383233070373535,-7.2,-3.9,1.08,8.25
11.393420934677124,-4.31,-4.1,1.17,6.06
11.40386700630188,-2.48,-4.51,0.64,5.18
11.413882970809937,-1.91,-4.99,-0.07,5.34
11.424301862716675,-2.63,-5.24,-0.49,5.88
11.434090852737427,-3.58,-5.2,-0.64,6.34
11.444854021072388,-4.21,-4.99,-0.47,6.54
11.473759889602661,-4.54,-4.61,-0.34,6.47
11.476368188858032,-4.65,-3.87,-0.55,6.07
11.478042840957642,-4.36,-2.88,-0.82,5.28
11.496561050415039,-3.67,-2.08,-0.77,4.28
11.499011039733887,-2.65,-1.48,-0.48,3.07
11.510854959487915,-1.68,-0.73,-0.22,1.84
11.514500856399536,-0.81,0.35,-0.2,0.9
11.5281400680542,0.15,2.02,-0.3,2.04
11.534281969070435,1.22,4.44,-0.82,4.67
11.544738054275513,2.71,6.8,-1.17,7.41
11.57439112663269,4.03,9.38,-0.85,10.24
11.576380968093872,5.19,10.63,-0.21,11.83
11.578097105026245,6.16,11.76,0.64,13.29
11.596376180648804,7.12,12.47,1.08,14.4
11.59841799736023,8.08,12.26,1.42,14.75
11.609479188919067,8.72,11.39,2.16,14.5
11.614700078964233,9.13,8.94,2.15,12.95
11.625316858291626,9.73,5.97,-0.56,11.42
11.635163068771362,11.36,4.18,-2.48,12.35
11.645328998565674,14.67,3.52,-2.16,15.24
11.675333023071289,18.29,3.1,-3.62,18.9
11.677505016326904,21.18,1.43,-5.4,21.9
11.678930044174194,21.88,1.87,-6.15,22.8
11.695497989654541,19.78,2.39,-6.94,21.09
11.697221040725708,15.58,4.11,-9.68,18.79
11.709501028060913,3.73,6.71,-15.0,16.85
11.715398073196411,-15.68,13.59,-7.36,22.01
11.726008176803589,-25.6,16.19,0.55,30.29
11.735830068588257,-4.92,4.84,2.87,7.47
11.746219873428345,11.0,-0.9,3.89,11.7
11.775945901870728,13.18,4.07,4.41,14.48
11.778095960617065,17.12,0.88,7.34,18.64
11.779760122299194,22.15,-4.46,0.65,22.6
11.795293092727661,9.56,-2.79,1.39,10.05
11.797039985656738,-1.32,-1.6,0.78,2.21
11.809507131576538,-3.88,0.89,-4.68,6.14
11.8160400390625,-1.76,2.09,-3.76,4.64
11.826905012130737,3.67,1.55,-2.0,4.45
11.836379051208496,7.5,0.6,-2.92,8.07
11.846937894821167,7.4,-0.38,-3.37,8.14
11.876888990402222,3.41,-0.54,-0.91,3.57
11.879355192184448,-0.09,-0.06,2.17,2.17
11.881000995635986,-1.66,0.29,2.78,3.25
11.894912004470825,-1.47,0.33,2.58,2.98
11.896671056747437,-0.48,0.18,1.28,1.37
11.90962815284729,0.47,0.13,0.32,0.58
11.916614055633545,1.09,0.14,-0.14,1.1
11.927006959915161,1.07,0.34,-0.29,1.15
11.93730616569519,0.21,0.49,-0.02,0.53
11.947566032409668,-1.13,0.67,0.22,1.33
11.976593017578125,-2.23,0.76,0.45,2.39
11.97865891456604,-2.58,0.64,0.43,2.69
11.980089902877808,-2.27,0.4,0.02,2.3
11.996316194534302,-1.77,0.51,-0.51,1.91
11.998960018157959,-1.08,0.46,-1.01,1.54
12.010061979293823,-1.01,0.26,-1.29,1.65
12.017439126968384,-1.08,0.0,-1.0,1.47
12.028252840042114,-1.09,-0.12,-0.42,1.17
12.03778600692749,-0.69,0.35,0.01,0.77
12.047725915908813,-0.53,1.24,0.21,1.36
12.077867984771729,-0.97,1.53,0.24,1.82
12.079944849014282,-1.69,1.15,0.13,2.04
12.081220865249634,-2.33,0.89,-0.24,2.5
12.096740961074829,-2.55,0.9,-0.65,2.78
12.098428964614868,-2.57,0.92,-1.04,2.92
12.109860181808472,-2.67,1.29,-0.98,3.12
12.117650985717773,-2.76,1.86,-0.18,3.33
12.128129959106445,-3.17,2.44,0.84,4.08
12.138236999511719,-4.0,2.99,1.36,5.17
12.148629903793335,-4.72,3.08,1.41,5.8
12.178699016571045,-4.66,3.13,0.88,5.68
12.180821180343628,-4.16,3.25,0.81,5.34
12.182414054870605,-4.44,3.39,1.01,5.67
12.195099115371704,-5.48,3.76,1.44,6.8
12.197818994522095,-6.83,4.22,1.8,8.22
12.21028208732605,-7.99,4.85,1.69,9.49
12.218443155288696,-8.8,5.89,1.44,10.68
12.228777170181274,-10.18,7.33,1.3,12.61
12.238903999328613,-12.89,8.31,1.39,15.39
12.249750852584839,-17.32,8.74,1.12,19.43
12.278879880905151,-18.41,8.61,0.96,20.34
12.281861066818237,-15.05,9.2,1.44,17.69
12.283517122268677,-9.53,10.77,1.33,14.44
12.296625852584839,-2.5,12.99,2.35,13.43
12.299424886703491,1.3,13.35,5.0,14.31
12.310035943984985,-2.39,11.57,5.92,13.21
12.319208860397339,-7.32,7.76,5.09,11.81
12.329392194747925,-10.0,3.51,5.52,11.94
12.340101957321167,-11.48,0.83,5.02,12.55
12.349879026412964,-10.91,0.75,6.39,12.66
12.378845930099487,-6.17,1.85,7.72,10.05
12.381237983703613,2.27,3.29,0.86,4.08
12.382883071899414,11.07,-0.09,-3.15,11.5
12.394710063934326,8.37,-2.87,0.29,8.85
12.399170160293579,-3.26,-2.17,2.49,4.64
12.410770177841187,-8.58,-3.91,3.16,9.94
12.419924974441528,-11.38,-6.62,1.6,13.26
12.429938077926636,-13.3,-6.97,-1.26,15.06
12.44018006324768,-12.24,-4.66,-2.89,13.41
12.450876951217651,-7.32,-3.31,-1.97,8.27
12.479515075683594,-4.47,-2.85,-1.01,5.39
12.482186079025269,-2.77,-3.17,-0.98,4.32
12.483774900436401,-2.02,-3.99,-1.23,4.63
12.497915983200073,-2.7,-4.55,-1.29,5.44
12.50051498413086,-3.51,-4.68,-1.04,5.94
12.512938976287842,-3.63,-4.41,-1.08,5.81
12.521759033203125,-3.69,-3.58,-1.21,5.28
12.53019118309021,-3.5,-2.67,-1.07,4.53
12.54037594795227,-3.01,-2.12,-0.42,3.7
12.550997018814087,-2.21,-1.67,0.34,2.79
12.576611042022705,-1.51,-1.03,0.62,1.93
12.57887601852417,-1.0,0.28,0.2,1.05
12.580622911453247,-0.11,2.1,-0.66,2.2
12.597388982772827,1.48,4.56,-1.46,5.01
12.6009681224823,3.71,6.82,-2.18,8.06
12.61112904548645,5.74,8.28,-1.72,10.22
12.621394872665405,7.14,9.77,-1.53,12.19
12.631893873214722,8.32,10.78,-1.07,13.65
12.642553091049194,8.83,11.31,-0.42,14.35
12.652724027633667,9.09,11.97,0.31,15.03
12.679306983947754,9.21,11.66,0.99,14.89
12.681756019592285,9.58,9.7,2.3,13.82
12.683447122573853,10.66,6.66,1.99,12.72
12.6948721408844,12.7,5.01,-2.3,13.84
12.70094609260559,15.76,3.6,-3.24,16.48
12.7117178440094,17.95,3.09,-1.75,18.29
12.721397161483765,18.38,2.28,-2.91,18.74
12.732048034667969,19.05,0.82,-4.43,19.57
12.74212908744812,19.23,2.47,-5.78,20.23
12.752340078353882,15.96,4.48,-4.82,17.26
12.78177285194397,8.61,3.22,-6.89,11.48
12.784608125686646,-7.42,4.49,-7.81,11.67
12.786758184432983,-24.8,13.65,-4.18,28.61
12.794787168502808,-20.35,15.9,0.08,25.82
12.80168890953064,4.78,3.79,3.14,6.86
12.812137842178345,12.92,1.11,2.54,13.21
12.822574853897095,15.66,6.6,2.64,17.19
12.832427024841309,21.15,0.87,1.63,21.23
12.842836141586304,20.52,-3.71,-2.55,21.0
12.8527991771698,5.21,-2.34,2.47,6.22
12.88208794593811,-2.18,-2.81,5.17,6.27
12.884485006332397,-5.21,-0.37,2.52,5.79
12.886098146438599,-4.28,2.07,-3.47,5.88
12.896559000015259,1.54,2.51,-6.03,6.71
12.90251898765564,6.19,1.41,-4.36,7.7
12.912764072418213,6.72,0.0,-2.4,7.13
12.923138856887817,4.38,-0.92,-0.56,4.51
12.933377981185913,1.43,-0.96,1.43,2.23
12.943418025970459,-0.91,-0.37,2.15,2.36
12.953523874282837,-1.78,0.15,2.11,2.76
12.984068155288696,-1.31,0.15,2.04,2.42
12.986674070358276,-0.2,-0.05,1.14,1.15
12.98918890953064,0.74,-0.16,-0.05,0.75
12.994554996490479,0.96,-0.1,-0.41,1.04
13.002899885177612,0.47,0.1,-0.46,0.66
13.013222932815552,-0.41,0.35,-0.03,0.53
13.023749113082886,-1.55,0.4,0.71,1.75
13.033882856369019,-2.57,0.26,0.96,2.75
13.044502019882202,-2.79,0.2,0.68,2.87
13.054152011871338,-2.33,0.22,0.19,2.34
13.084066152572632,-1.37,0.32,-0.42,1.46
13.086163997650146,-0.81,0.27,-0.61,1.04
13.087734937667847,-0.98,0.13,-0.27,1.02
13.094459056854248,-1.57,-0.18,0.05,1.58
13.103585004806519,-1.48,-0.29,0.22,1.52
13.114082098007202,-0.92,0.28,0.57,1.11
13.123747110366821,-0.64,1.14,0.54,1.41
13.134335994720459,-0.7,1.11,0.26,1.33
13.144232988357544,-1.09,0.67,0.22,1.29
13.154757022857666,-1.38,1.01,-0.64,1.82
13.183717966079712,-1.78,1.59,-0.67,2.47
13.186213970184326,-2.66,1.63,-1.38,3.41
13.187843084335327,-2.86,1.9,-1.58,3.77
13.194683074951172,-2.82,2.23,-0.91,3.7
13.204503059387207,-3.18,2.68,-0.16,4.16
13.214599847793579,-3.67,2.97,0.5,4.74
13.224951028823853,-4.06,3.0,0.55,5.07
13.234930992126465,-3.73,2.76,0.09,4.64
13.245581865310669,-3.28,2.72,-0.05,4.26
13.25534987449646,-3.59,3.2,0.67,4.85
13.285086870193481,-4.8,3.78,1.58,6.31
13.287194013595581,-6.25,4.51,2.34,8.05
13.28886604309082,-7.31,5.87,2.45,9.68
13.295050859451294,-8.37,7.64,2.36,11.57
13.304805040359497,-10.48,8.74,1.75,13.75
13.315230131149292,-12.77,9.5,1.05,15.95
13.325559854507446,-15.02,10.12,0.93,18.13
13.335389852523804,-18.01,10.36,0.71,20.78
13.346220970153809,-19.28,9.89,1.28,21.7
13.356147050857544,-15.0,9.27,2.43,17.79
13.386672973632812,-8.43,10.81,2.71,13.97
13.388816118240356,0.1,12.61,1.18,12.66
13.39050006866455,4.45,11.54,3.21,12.77
13.395524978637695,-1.04,9.43,6.92,11.74
13.409878969192505,-7.89,5.37,7.15,11.92
13.415520906448364,-11.46,1.85,6.12,13.12
13.42696499824524,-13.33,0.15,5.14,14.28
13.436120986938477,-11.64,0.02,7.15,13.66
13.446365118026733,-4.37,1.86,7.19,8.61
13.456683874130249,5.81,1.63,-2.12,6.39
13.487519025802612,13.82,-1.0,-3.33,14.25
13.489930868148804,7.56,-2.31,1.61,8.06
13.491562128067017,-3.36,-2.28,3.61,5.43
13.496031045913696,-7.67,-4.72,5.03,10.31
13.510112047195435,-10.06,-7.5,4.0,13.17
13.516371965408325,-11.37,-8.45,0.84,14.19
13.526697874069214,-10.05,-6.2,-2.1,11.99
13.536638975143433,-6.69,-3.96,-1.93,8.01
13.546641111373901,-5.14,-3.3,-0.33,6.11
13.557510137557983,-4.5,-3.58,0.72,5.79
13.58977198600769,-3.63,-4.45,0.94,5.81
13.59138798713684,-2.91,-5.0,0.75,5.83
13.59247612953186,-2.33,-5.07,0.44,5.59
13.59622597694397,-2.04,-4.74,0.19,5.16
13.606618165969849,-2.16,-3.76,-0.2,4.34
13.616533041000366,-2.37,-2.72,-0.59,3.65
13.627027988433838,-2.31,-1.93,-0.47,3.04
13.63711404800415,-1.76,-1.25,0.14,2.16
13.647228956222534,-1.02,-0.32,0.6,1.22
13.657749891281128,-0.02,1.4,0.31,1.43
13.686253070831299,1.59,2.93,-0.46,3.36
13.688539028167725,3.27,4.99,-0.64,6.0
13.690299034118652,4.68,7.02,-1.22,8.52
13.697108030319214,5.73,8.59,-1.31,10.4
13.71068000793457,6.48,9.68,-0.56,11.66
13.718066930770874,7.45,10.8,0.94,13.15
13.728456020355225,8.91,11.2,1.9,14.43
13.738301038742065,9.9,11.3,2.19,15.18
13.747501134872437,9.43,10.39,2.3,14.21
13.758046865463257,7.94,7.43,1.9,11.03
13.78745698928833,7.34,5.18,-1.02,9.04
13.789443969726562,10.13,3.85,-2.69,11.16
13.791131019592285,14.47,3.16,-1.89,14.93
13.797286987304688,16.9,3.31,-2.9,17.46
13.810328960418701,18.26,2.02,-3.46,18.69
13.817897081375122,19.1,0.87,-3.81,19.49
13.82842206954956,18.01,2.68,-5.17,18.92
13.838565111160278,13.73,3.81,-5.55,15.29
13.848600149154663,8.53,4.49,-10.23,14.05
13.859107971191406,-2.75,7.39,-13.79,15.88
13.888195037841797,-18.57,14.02,-2.18,23.37
13.890578985214233,-18.89,13.08,4.14,23.34
13.892313003540039,2.76,3.02,2.43,4.75
13.898194074630737,11.6,1.34,3.18,12.1
13.908788919448853,13.04,5.47,6.57,15.59
13.918678045272827,17.94,-0.55,3.39,18.26
13.929316997528076,18.69,-1.17,-3.45,19.04
13.939251184463501,3.61,-2.03,2.98,5.1
13.949004888534546,-3.7,-2.08,5.26,6.75
13.959743976593018,-5.7,0.02,1.62,5.92
13.990610837936401,-4.03,1.64,-5.12,6.71
13.99363398551941,2.25,2.19,-6.77,7.46
13.995748043060303,7.72,0.96,-3.84,8.67
13.998846054077148,8.64,-0.23,-2.81,9.08
14.0089271068573,6.05,-0.95,-1.51,6.3
14.019016981124878,2.3,-0.97,1.26,2.79
14.02971601486206,-0.97,-0.29,3.1,3.26
14.039895057678223,-2.52,0.06,3.74,4.51
14.04957890510559,-2.24,0.09,3.06,3.79
14.061851978302002,-0.87,-0.01,1.2,1.48
14.089750051498413,0.64,-0.01,-0.52,0.82
14.09160304069519,1.24,0.21,-1.01,1.61
14.093230962753296,0.55,0.46,-0.91,1.15
14.099390029907227,-0.78,0.39,-0.31,0.92
14.109559059143066,-2.06,0.21,0.59,2.15
14.119914054870605,-2.85,0.22,0.99,3.02
14.130185842514038,-3.03,0.16,0.89,3.16
14.140810012817383,-2.65,0.23,0.25,2.67
14.150362014770508,-1.73,0.2,-0.13,1.74
14.160845041275024,-1.12,-0.05,-0.02,1.12
14.191619157791138,-1.26,-0.24,0.23,1.3
14.19434905052185,-1.27,-0.15,0.36,1.32
14.1959969997406,-0.72,0.48,0.5,0.99
14.214269876480103,-0.48,1.29,0.47,1.45
14.216744184494019,-0.81,1.37,-0.15,1.59
14.227890014648438,-1.35,1.12,-0.36,1.79
14.230806112289429,-1.67,1.26,-0.26,2.1
14.24368691444397,-1.76,1.12,-0.59,2.16
14.250799894332886,-2.02,1.31,-1.18,2.68
14.260844945907593,-2.24,1.57,-0.82,2.85
14.288799047470093,-2.62,1.82,-0.49,3.22
14.29084300994873,-3.39,2.39,0.09,4.14
14.292503118515015,-3.96,2.65,0.9,4.84
14.300677061080933,-4.09,2.77,1.16,5.07
14.310850858688354,-3.87,2.92,1.09,4.96
14.321139097213745,-3.77,2.92,0.77,4.83
14.331597089767456,-4.04,3.14,0.68,5.16
14.342335939407349,-4.71,3.88,0.96,6.17
14.352027177810669,-5.77,4.55,1.45,7.48
14.36222505569458,-6.73,5.26,1.48,8.66
14.391829013824463,-7.41,6.44,1.55,9.93
14.394343137741089,-8.82,7.68,1.48,11.78
14.396018981933594,-11.92,8.45,1.5,14.68
14.41451907157898,-15.58,8.97,0.88,17.99
14.41699504852295,-17.62,9.34,0.3,19.94
14.428107976913452,-16.86,9.1,0.08,19.15
14.431926012039185,-14.64,9.13,0.32,17.25
14.443657159805298,-9.17,10.35,0.79,13.85
14.452717065811157,-2.22,12.35,1.57,12.64
14.462602853775024,2.87,11.73,3.03,12.45
14.493425130844116,0.76,9.05,5.18,10.45
14.496351957321167,-5.3,5.81,5.03,9.33
14.498008012771606,-10.04,3.3,5.12,11.74
14.51503586769104,-12.48,1.15,5.01,13.49
14.517933130264282,-11.17,0.53,6.66,13.01
14.527386903762817,-4.66,1.69,6.79,8.4
14.53231692314148,4.6,2.21,-0.46,5.12
14.543843030929565,12.39,-0.38,-2.2,12.58
14.552970170974731,8.76,-2.89,1.05,9.28
14.563282012939453,-1.95,-2.44,3.07,4.37
14.597080945968628,-6.54,-4.14,4.26,8.83
14.598704099655151,-8.92,-6.69,3.25,11.61
14.599828004837036,-10.71,-7.81,0.38,13.26
14.613590002059937,-11.08,-6.03,-1.64,12.72
14.61538815498352,-8.16,-4.13,-1.19,9.22
14.628464937210083,-5.64,-3.5,0.25,6.64
14.632874965667725,-3.87,-3.75,0.99,5.47
14.644060850143433,-2.28,-4.64,1.01,5.26
14.653460025787354,-1.69,-5.42,0.66,5.71
14.663424968719482,-2.32,-5.73,0.59,6.2
14.693299055099487,-2.75,-5.55,0.54,6.21
14.695405006408691,-2.85,-5.05,0.53,5.82
14.69704794883728,-2.99,-3.88,0.19,4.9
14.714473009109497,-2.98,-2.48,-0.38,3.89
14.716907024383545,-2.3,-1.55,-0.61,2.83
14.727206945419312,-1.13,-1.15,-0.26,1.63
14.733393907546997,-0.23,-0.86,0.39,0.97
14.744237184524536,0.19,0.06,0.89,0.91
14.754307985305786,0.69,1.58,0.83,1.91
14.763959169387817,1.42,3.76,0.79,4.09
14.79212498664856,2.59,5.46,0.76,6.09
14.794081926345825,3.69,6.81,0.91,7.79
14.795835971832275,4.24,8.78,1.66,9.89
14.814615964889526,4.24,10.65,2.48,11.72
14.81666111946106,4.24,12.05,3.24,13.17
14.827770948410034,4.95,12.06,3.54,13.5
14.834861993789673,5.75,11.11,3.38,12.95
14.844298124313354,5.83,9.19,2.13,11.08
14.854460000991821,6.53,6.74,-1.34,9.47
14.864959955215454,9.83,4.23,-3.7,11.32
14.894509077072144,13.9,2.51,-3.69,14.59
14.897089958190918,16.49,2.75,-5.06,17.46
14.898743867874146,17.65,2.29,-6.19,18.84
14.913447141647339,18.54,1.03,-6.19,19.57
14.91498589515686,19.16,1.03,-6.91,20.39
14.927803993225098,15.69,3.04,-6.64,17.3
14.935060977935791,10.23,4.07,-7.4,13.26
14.945136070251465,3.95,7.06,-12.04,14.5
14.95506501197815,-6.95,11.45,-10.02,16.72
14.965986967086792,-17.66,17.66,2.08,25.06
14.993267059326172,-7.78,12.71,3.04,15.2
14.996080160140991,8.47,1.27,0.86,8.6
14.998078107833862,7.98,-0.19,-1.82,8.18
15.014652013778687,4.91,1.53,0.88,5.21
15.017184019088745,8.41,-0.27,12.17,14.79
15.028182983398438,14.74,-3.61,5.64,16.18
15.035901069641113,10.14,-2.04,2.16,10.56
15.045653104782104,3.16,-1.86,2.47,4.42
15.055628061294556,0.26,0.37,0.02,0.45
15.066205024719238,-1.63,1.94,-4.25,4.94
15.097931146621704,0.02,2.38,-7.02,7.41
15.100430965423584,4.6,1.22,-4.62,6.63
15.102073907852173,6.0,-0.21,-2.56,6.52
15.114245176315308,3.78,-0.76,-1.13,4.01
15.116801977157593,0.99,-0.72,0.92,1.53
15.127439975738525,-1.19,-0.2,2.87,3.11
15.136194944381714,-2.13,0.14,3.65,4.22
15.146214962005615,-1.4,0.03,2.32,2.7
15.156432867050171,0.52,-0.08,0.6,0.79
15.166496992111206,1.83,-0.14,-0.63,1.94
15.19461989402771,1.65,0.05,-0.98,1.91
15.196670055389404,0.48,0.44,-0.54,0.84
15.198292016983032,-0.96,0.65,0.23,1.18
15.215162992477417,-2.2,0.52,0.51,2.31
15.217257976531982,-2.65,0.26,0.38,2.68
15.228062868118286,-2.09,0.07,0.17,2.09
15.236767053604126,-1.31,0.11,-0.07,1.31
15.247289896011353,-0.15,0.42,-0.17,0.47
15.257946014404297,-0.28,0.35,0.16,0.47
15.267423868179321,-1.34,0.46,0.7,1.58
15.297477006912231,-1.88,0.47,0.81,2.1
15.299674034118652,-1.76,0.42,0.53,1.88
15.301334142684937,-1.37,0.58,0.33,1.52
15.312913179397583,-1.1,0.85,0.08,1.39
15.316602945327759,-1.16,1.51,0.02,1.9
15.328799962997437,-1.83,2.02,-0.39,2.75
15.337422132492065,-2.62,1.85,-0.91,3.33
15.347790002822876,-3.04,1.47,-1.22,3.59
15.357754945755005,-2.96,1.42,-1.23,3.5
15.368109941482544,-2.92,1.71,-0.98,3.52
15.396939992904663,-3.07,2.19,-0.29,3.78
15.399844884872437,-3.47,2.61,0.56,4.37
15.40152096748352,-4.13,2.85,1.01,5.11
15.414718866348267,-4.19,2.86,0.86,5.14
15.417397022247314,-3.74,3.08,0.91,4.92
15.428271055221558,-3.72,3.46,1.11,5.2
15.437921047210693,-4.51,3.81,1.41,6.06
15.448097944259644,-5.55,4.33,1.65,7.23
15.458678960800171,-6.61,5.06,1.67,8.49
15.469094038009644,-7.95,5.76,1.4,9.91
15.498573064804077,-9.39,6.46,1.17,11.45
15.501424074172974,-11.57,7.21,0.86,13.65
15.503290891647339,-14.93,7.88,0.35,16.88
15.514052152633667,-16.83,8.28,-0.12,18.75
15.518193006515503,-16.22,8.69,0.03,18.4
15.528861999511719,-13.0,9.47,0.43,16.08
15.538563966751099,-7.49,11.71,1.55,13.98
15.548725843429565,-0.77,12.55,3.0,12.92
15.559592008590698,1.46,11.1,4.57,12.09
15.56918215751648,-3.53,9.06,5.81,11.32
15.601380109786987,-7.94,5.67,4.66,10.81
15.603487968444824,-10.21,2.97,4.21,11.43
15.605134963989258,-10.7,1.72,3.67,11.44
15.612590074539185,-9.04,1.56,6.04,10.98
15.618391990661621,-3.76,2.68,6.24,7.76
15.629170179367065,5.51,2.66,-0.62,6.14
15.639045000076294,12.73,-1.26,-1.98,12.94
15.649306058883667,7.28,-2.95,1.42,7.98
15.659846067428589,-3.01,-2.37,3.12,4.94
15.669790029525757,-7.28,-4.17,3.86,9.23
15.698507070541382,-9.85,-6.63,2.02,12.04
15.701428174972534,-11.84,-7.14,-0.62,13.84
15.703104972839355,-11.7,-5.06,-1.7,12.86
15.713528871536255,-8.48,-3.8,-0.65,9.31
15.719244003295898,-6.4,-3.5,0.42,7.3
15.729732036590576,-4.85,-3.91,0.6,6.25
15.739744901657104,-3.21,-4.7,0.31,5.7
15.75006890296936,-2.2,-5.23,-0.04,5.67
15.76055097579956,-2.16,-5.32,-0.34,5.75
15.770406007766724,-2.36,-5.01,-0.73,5.58
15.799818992614746,-2.7,-4.4,-1.05,5.26
15.802631139755249,-3.07,-3.49,-1.33,4.83
15.804852962493896,-3.06,-2.7,-1.29,4.27
15.814154863357544,-2.58,-2.03,-0.82,3.38
15.820091962814331,-1.97,-1.45,-0.01,2.44
15.830557107925415,-1.49,-0.58,0.39,1.64
15.840555906295776,-0.8,1.03,0.16,1.31
15.850829839706421,0.56,2.7,-0.62,2.82
15.860946893692017,2.49,4.45,-1.01,5.19
15.871209859848022,4.44,6.42,-1.0,7.86
15.900758981704712,6.13,7.98,-0.62,10.08
15.903699159622192,7.15,9.68,0.01,12.03
15.90579605102539,7.68,11.79,0.64,14.08
15.913368940353394,7.96,12.46,0.83,14.8
15.92077088356018,8.33,11.88,1.05,14.54
15.93096399307251,9.06,10.32,1.55,13.81
15.941272020339966,9.78,7.25,1.68,12.28
15.951447010040283,9.97,4.14,-0.67,10.81
15.96149206161499,10.56,2.61,-3.36,11.38
15.971735000610352,12.83,2.81,-2.95,13.46
16.001951932907104,15.13,3.6,-3.3,15.89
16.004456996917725,15.41,3.63,-3.97,16.32
16.006134033203125,17.26,1.86,-5.44,18.19
16.01243305206299,19.64,3.33,-6.55,20.96
16.02134919166565,14.87,4.94,-10.14,18.66
16.03156304359436,-1.93,7.88,-9.13,12.21
16.041929960250854,-17.27,17.15,-0.36,24.34
16.05241894721985,-13.37,15.25,-0.19,20.28
16.06174111366272,4.58,6.4,2.59,8.28
16.07207202911377,10.84,4.32,6.69,13.45
16.10336995124817,16.41,-0.46,-2.94,16.67
16.10558009147644,13.72,-3.09,-3.3,14.44
16.107346057891846,4.78,-5.27,6.03,9.32
16.11291193962097,2.35,-5.1,5.62,7.94
16.121415853500366,0.84,-1.91,-1.25,2.43
16.13214087486267,0.62,1.84,-5.4,5.73
16.14221501350403,3.03,3.35,-3.07,5.46
16.152619123458862,5.24,2.36,-2.15,6.13
16.16232204437256,5.37,0.13,-2.31,5.84
16.172828912734985,3.75,-1.23,-0.7,4.0
16.202928066253662,1.17,-0.95,1.08,1.85
16.205036878585815,-1.14,0.03,2.09,2.38
16.2066810131073,-2.15,0.66,2.12,3.09
16.212652921676636,-1.57,0.7,1.34,2.17
16.222342014312744,0.13,0.16,0.57,0.6
16.232563972473145,1.52,-0.11,-0.03,1.52
16.242986917495728,1.64,-0.06,-0.23,1.65
16.25334596633911,0.54,0.28,-0.05,0.61
16.262914896011353,-0.88,0.66,0.32,1.14
16.273492097854614,-1.95,0.7,0.65,2.17
16.303064107894897,-2.24,0.63,0.62,2.4
16.30570101737976,-1.99,0.58,0.47,2.12
16.30739188194275,-1.63,0.59,0.03,1.73
16.312904119491577,-1.4,0.62,-0.32,1.56
16.323235988616943,-1.1,0.63,-0.8,1.49
16.3332679271698,-1.28,0.46,-1.07,1.73
16.3436758518219,-1.39,0.39,-0.68,1.59
16.353645086288452,-1.46,0.14,0.0,1.46
16.364042043685913,-1.29,0.55,0.05,1.4
16.37373185157776,-1.29,1.4,0.28,1.92
16.406123876571655,-1.62,1.37,0.08,2.12
16.40910315513611,-1.79,0.95,-0.07,2.02
16.41185998916626,-1.91,0.79,-0.21,2.07
16.415333032608032,-2.14,0.79,-0.39,2.31
16.423259019851685,-2.39,0.88,-0.5,2.59
16.434058904647827,-2.63,1.11,-0.44,2.88
16.44406294822693,-2.83,1.5,-0.03,3.2
16.45408606529236,-2.87,1.78,0.59,3.42
16.46444797515869,-3.22,2.08,0.86,3.92
16.475313901901245,-3.69,2.38,1.1,4.52
16.505125999450684,-3.87,2.41,0.82,4.63
16.50838804244995,-3.6,2.31,0.41,4.29
16.51000714302063,-3.49,2.33,0.53,4.22
16.514228105545044,-4.27,2.71,1.06,5.16
16.52838397026062,-5.56,3.33,1.82,6.73
16.534309148788452,-6.85,3.93,2.01,8.14
16.545382976531982,-7.74,4.78,1.85,9.28
16.55477499961853,-8.77,6.08,1.74,10.81
16.565186023712158,-10.95,7.38,2.06,13.36
16.575606107711792,-13.52,8.02,2.19,15.87
16.607053995132446,-15.06,8.25,2.35,17.33
16.60854411125183,-14.39,8.68,2.13,16.93
16.609625101089478,-11.61,9.56,1.96,15.16
16.614569902420044,-6.02,11.68,1.5,13.22
16.624778032302856,-0.11,12.38,2.38,12.6
16.635228872299194,0.4,12.11,3.78,12.69
16.645092010498047,-4.95,10.35,5.9,12.9
16.655340909957886,-9.06,5.86,6.3,12.49
16.66537117958069,-10.61,2.21,5.5,12.15
16.67563509941101,-11.2,1.05,4.15,11.99
16.704585075378418,-9.48,1.41,5.55,11.07
16.707112073898315,-4.61,2.17,6.33,8.12
16.708820104599,4.03,2.41,-0.84,4.77
16.71516489982605,12.08,-0.53,-2.25,12.29
16.72837996482849,7.51,-2.26,1.34,7.95
16.735183000564575,-2.99,-1.76,3.28,4.77
16.745650053024292,-7.35,-3.89,4.22,9.32
16.75603699684143,-9.69,-6.48,2.77,11.98
16.766309022903442,-11.1,-6.93,0.04,13.08
16.77669596672058,-10.18,-4.93,-1.54,11.41
16.805644035339355,-7.21,-3.4,-1.04,8.03
16.80832600593567,-5.22,-3.07,-0.09,6.05
16.80996584892273,-3.73,-3.29,0.28,4.98
16.816126108169556,-2.49,-3.84,0.01,4.57
16.828824996948242,-2.22,-4.36,-0.34,4.9
16.83613610267639,-2.87,-4.61,-0.25,5.43
16.846418142318726,-3.35,-4.43,-0.29,5.56
16.85678195953369,-3.55,-3.72,-0.65,5.18
16.86697506904602,-3.47,-2.75,-0.82,4.5
16.877495050430298,-3.06,-2.09,-0.41,3.72
16.907081842422485,-2.37,-1.56,0.36,2.86
16.910290002822876,-1.61,-1.0,0.76,2.04
16.91202712059021,-0.92,-0.1,0.46,1.03
16.916882038116455,-0.03,1.27,-0.34,1.31
16.926305055618286,1.37,3.32,-1.12,3.76
16.937062978744507,3.16,5.49,-1.9,6.61
16.946861028671265,4.89,6.73,-1.79,8.5
16.95717215538025,5.87,7.98,-1.15,9.97
16.967334985733032,6.44,8.96,-0.7,11.05
16.977916955947876,6.97,9.95,-0.1,12.14
17.00758385658264,8.1,10.56,0.29,13.31
17.00958514213562,9.43,10.36,0.71,14.02
17.011245012283325,9.1,9.28,1.47,13.08
17.01667618751526,7.61,6.79,2.59,10.52
17.027034997940063,7.87,5.39,0.9,9.58
17.037070989608765,11.91,4.54,-1.2,12.8
17.047543048858643,16.37,3.11,-0.55,16.67
17.058547019958496,17.32,3.46,-0.73,17.67
17.06765913963318,16.31,3.08,-3.07,16.87
17.078272104263306,16.47,2.44,-4.89,17.35
17.10699486732483,16.28,4.04,-6.69,18.05
17.11052393913269,11.28,5.12,-11.0,16.56
17.112528085708618,-3.46,8.98,-9.04,13.2
17.117305994033813,-15.71,17.17,0.41,23.27
17.128039121627808,-8.15,11.37,2.28,14.17
17.137810945510864,8.93,1.36,2.43,9.35
17.148054838180542,13.57,2.06,4.61,14.47
17.158629179000854,15.92,-0.6,2.25,16.08
17.16829514503479,15.5,-2.18,-2.29,15.81
17.178830862045288,6.11,-0.67,1.76,6.39
17.20767307281494,0.33,-2.14,5.37,5.79
17.209633111953735,-2.55,-0.66,1.57,3.06
17.211270093917847,-2.9,1.17,-3.95,5.03
17.218173027038574,1.23,1.94,-5.15,5.63
17.228288888931274,5.75,1.11,-3.11,6.63
17.238776922225952,7.12,0.1,-2.58,7.57
17.248657941818237,5.66,-0.73,-1.56,5.91
17.259330987930298,2.82,-0.85,0.37,2.96
17.26895785331726,0.13,-0.21,1.73,1.74
17.279452085494995,-1.3,0.21,2.71,3.01
17.309869050979614,-1.72,0.18,2.9,3.37
17.312504053115845,-1.37,0.11,1.83,2.28
17.31414484977722,-0.37,0.04,0.48,0.6
17.33248019218445,0.47,-0.01,-0.31,0.56
17.334901094436646,0.63,0.15,-0.71,0.96
17.346101999282837,0.11,0.22,-0.31,0.39
17.349359035491943,-1.09,0.26,0.34,1.17
17.36183500289917,-2.31,0.33,0.78,2.46
17.369706869125366,-2.82,0.33,0.72,2.92
17.380112886428833,-2.38,0.15,0.44,2.42
17.410003900527954,-1.46,0.2,0.02,1.47
17.412123918533325,-1.13,0.22,-0.04,1.15
17.413739919662476,-1.06,0.2,-0.14,1.08
17.432119131088257,-1.02,0.09,0.1,1.02
17.433837175369263,-1.08,0.15,0.3,1.13
17.448508977890015,-0.91,0.46,0.37,1.08
17.45155692100525,-0.68,1.28,0.27,1.47
17.461355924606323,-0.86,1.84,-0.34,2.05
17.470478057861328,-1.17,1.66,-0.36,2.06
17.48038101196289,-1.54,1.27,-0.27,2.01
17.50859498977661,-2.07,1.37,-0.74,2.59
17.510637044906616,-2.47,1.51,-0.43,2.92
17.51205086708069,-2.85,1.32,-0.55,3.18
17.51991605758667,-3.09,1.48,-0.5,3.46
17.53021788597107,-3.28,2.06,-0.05,3.87
17.54068899154663,-3.56,2.61,0.53,4.44
17.55062198638916,-4.03,2.8,0.87,4.98
17.561038970947266,-4.2,2.81,0.71,5.1
17.57101798057556,-3.83,2.73,0.34,4.71
17.58204698562622,-3.54,2.87,0.51,4.58
17.610522031784058,-4.06,3.34,1.19,5.39
17.61235213279724,-5.32,3.91,2.03,6.9
17.61399817466736,-6.62,4.54,2.38,8.37
17.632936000823975,-7.48,5.48,2.12,9.51
17.63501811027527,-8.45,6.38,1.63,10.71
17.64628005027771,-10.34,7.05,1.11,12.56
17.65131688117981,-13.29,8.1,0.73,15.58
17.66188097000122,-15.81,8.79,0.72,18.1
17.67131018638611,-16.27,8.8,1.24,18.53
17.682188987731934,-14.21,9.11,1.56,16.95
17.713150024414062,-9.8,10.67,2.8,14.75
17.715893983840942,-2.76,13.05,3.97,13.91
17.717566967010498,1.95,13.45,5.36,14.6
17.732712030410767,-0.43,11.92,5.96,13.33
17.735116004943848,-5.0,8.13,5.28,10.9
17.745807886123657,-7.87,4.61,6.25,11.05
17.751829862594604,-8.32,2.19,6.77,10.94
17.76214909553528,-6.88,0.92,7.66,10.33
17.772490978240967,-3.29,3.03,4.87,6.61
17.7826988697052,4.78,2.96,-2.01,5.97
17.81205701828003,7.64,-0.63,-0.05,7.66
17.814794063568115,-1.1,-1.39,2.9,3.39
17.816674947738647,-7.31,-2.94,4.1,8.88
17.83296799659729,-10.4,-5.28,3.79,12.26
17.83544087409973,-11.46,-6.51,1.2,13.23
17.84479594230652,-9.32,-5.69,-1.48,11.01
17.852140188217163,-6.48,-4.38,-2.43,8.19
17.862632036209106,-5.74,-3.82,-1.64,7.08
17.872560024261475,-6.09,-4.09,-0.43,7.34
17.883167028427124,-5.53,-5.06,0.27,7.5
17.910678148269653,-4.2,-5.86,-0.03,7.2
17.912811040878296,-3.04,-6.09,-0.83,6.85
17.9145028591156,-3.22,-5.65,-1.23,6.61
17.93258786201477,-3.66,-4.87,-1.36,6.24
17.93509316444397,-3.57,-4.22,-1.29,5.67
17.945662021636963,-3.33,-3.52,-1.05,4.95
17.95304298400879,-3.01,-2.74,-0.73,4.13
17.963263988494873,-2.65,-2.1,-0.29,3.39
17.973582983016968,-2.01,-1.24,0.15,2.36
17.98435091972351,-1.11,0.15,0.41,1.19
18.013503074645996,-0.04,2.07,0.06,2.07
18.015894174575806,1.49,4.06,-0.69,4.37
18.017593145370483,3.52,6.08,-1.66,7.21
18.032332181930542,5.99,7.39,-2.4,9.81
18.034088850021362,7.6,8.09,-1.61,11.21
18.046282052993774,7.49,9.04,-1.59,11.84
18.053547143936157,6.9,10.04,-1.69,12.29
18.064341068267822,6.87,10.87,-0.91,12.89
18.074998140335083,8.05,11.44,0.67,14.0
18.083983182907104,9.28,10.81,2.66,14.49
18.110626935958862,9.84,8.63,4.01,13.68
18.112761974334717,10.88,6.96,1.61,13.01
18.114474058151245,13.29,5.41,-1.88,14.47
18.136394023895264,15.28,3.54,-0.59,15.69
18.139060974121094,15.1,2.88,-0.09,15.37
18.146578073501587,14.67,1.75,-2.24,14.94
18.154190063476562,15.4,1.5,-4.28,16.05
18.164708852767944,15.65,2.74,-5.04,16.66
18.174767017364502,15.15,1.96,-8.73,17.59
18.18498706817627,6.18,3.13,-13.32,15.01
18.216047048568726,-10.32,9.99,-8.38,16.62
18.218744039535522,-20.15,17.2,1.32,26.52
18.220475912094116,-7.79,11.9,3.85,14.73
18.23301386833191,9.22,6.7,5.4,12.61
18.235110998153687,15.04,4.02,6.74,16.96
18.246559858322144,19.83,-3.47,-1.66,20.19
18.254841089248657,10.99,-4.21,-2.41,12.01
18.265244960784912,1.13,-4.03,5.4,6.83
18.2756609916687,-0.79,-3.7,7.92,8.77
18.285454034805298,-1.57,-1.24,1.95,2.79
18.31518006324768,-1.41,1.8,-5.78,6.21
18.31763195991516,2.07,3.18,-6.78,7.76
18.319314002990723,6.18,1.85,-3.95,7.56
18.330864191055298,8.2,0.09,-3.0,8.73
18.33474612236023,6.95,-0.96,-2.38,7.4
18.347235918045044,3.4,-1.1,-0.5,3.6
18.355491876602173,-0.04,-0.34,1.27,1.31
18.36592984199524,-1.75,0.15,2.61,3.14
18.37591290473938,-2.05,0.1,3.53,4.08
18.386224031448364,-1.59,0.02,2.88,3.28
18.41615891456604,-0.33,-0.07,1.2,1.24
18.4188289642334,0.97,0.04,0.03,0.97
18.42046093940735,1.26,0.26,-0.5,1.38
18.43282699584961,0.49,0.51,-0.67,0.97
18.435688018798828,-0.61,0.72,-0.31,0.99
18.446722984313965,-1.72,0.84,0.17,1.92
18.45607590675354,-2.55,0.81,0.64,2.75
18.466522932052612,-2.8,0.63,0.62,2.93
18.476897954940796,-2.27,0.58,0.2,2.35
18.48676896095276,-1.52,0.63,0.07,1.64
18.51722502708435,-0.82,0.69,-0.38,1.13
18.520145177841187,-0.75,0.51,-0.34,0.96
18.521820068359375,-1.08,0.36,-0.36,1.19
18.53222393989563,-1.06,0.69,-0.89,1.54
18.536391019821167,-0.77,1.07,-0.82,1.55
18.546994924545288,-0.67,1.29,-0.78,1.64
18.556700944900513,-0.8,1.41,-0.65,1.74
18.56674313545227,-1.44,1.62,-0.42,2.2
18.57789397239685,-2.37,1.48,-0.26,2.8
18.587902069091797,-3.12,1.07,-0.55,3.34
18.614614963531494,-3.29,1.01,-0.73,3.51
18.616731882095337,-3.08,1.4,-0.45,3.41
18.618025064468384,-3.38,2.13,0.26,4.0
18.633388996124268,-4.26,2.73,1.13,5.18
18.636811017990112,-5.16,3.06,1.37,6.15
18.64730405807495,-5.48,3.09,1.0,6.37
18.657407999038696,-4.85,3.01,0.6,5.73
18.667432069778442,-4.28,3.3,0.58,5.43
18.677869081497192,-4.98,3.78,1.13,6.35
18.68798804283142,-6.53,4.35,1.5,7.98
18.71761393547058,-7.77,5.08,1.28,9.37
18.720456838607788,-8.41,6.01,0.86,10.37
18.72211194038391,-9.58,6.72,0.5,11.71
18.732085943222046,-12.12,7.03,0.59,14.02
18.737507104873657,-14.84,7.35,0.93,16.58
18.747838973999023,-16.2,8.18,1.56,18.21
18.757846117019653,-14.2,9.27,2.41,17.12
18.76817011833191,-9.76,11.05,2.63,14.97
18.779366970062256,-2.9,12.62,2.07,13.11
18.789018869400024,2.57,12.9,2.54,13.39
18.81724190711975,-1.45,11.33,7.04,13.41
18.81945490837097,-8.66,8.42,6.41,13.67
18.82111406326294,-11.47,4.73,5.23,13.46
18.83095908164978,-12.28,1.58,4.94,13.33
18.837696075439453,-12.16,0.45,5.51,13.35
18.848396062850952,-8.47,1.32,7.77,11.56
18.85870385169983,-1.55,4.12,3.56,5.66
18.8686740398407,8.95,2.44,-4.83,10.45
18.878849983215332,13.44,-1.13,-1.31,13.55
18.8890540599823,2.72,-0.92,2.49,3.8
18.918253183364868,-5.04,-2.09,4.42,7.02
18.920695066452026,-8.23,-5.91,5.11,11.34
18.922343969345093,-10.75,-8.55,3.0,14.05
18.93097710609436,-12.71,-7.63,0.02,14.82
18.938323974609375,-11.4,-4.43,-1.33,12.3
18.948997020721436,-7.32,-3.1,-0.56,7.96
18.95940613746643,-5.44,-2.83,0.21,6.13
18.96925711631775,-4.38,-3.07,0.53,5.37
18.979613065719604,-3.54,-3.85,0.69,5.27
18.989829063415527,-3.3,-4.5,0.64,5.61
19.018737077713013,-3.3,-4.55,0.39,5.63
19.021505117416382,-3.17,-3.91,-0.12,5.03
19.023144006729126,-2.8,-2.73,-0.76,3.98
19.031112909317017,-2.22,-1.61,-1.16,2.97
19.039520978927612,-1.42,-0.8,-1.07,1.94
19.049588918685913,-0.56,-0.31,-0.83,1.04
19.059919118881226,0.1,0.4,-0.92,1.0
19.06994891166687,0.95,1.77,-1.72,2.64
19.08022403717041,2.29,3.48,-2.63,4.92
19.09042501449585,4.01,5.15,-3.3,7.31
19.121450185775757,5.56,6.17,-3.22,8.9
19.123950004577637,6.23,6.92,-2.69,9.69
19.12567114830017,6.22,8.19,-2.39,10.55
19.131370067596436,6.46,9.66,-1.56,11.72
19.139842987060547,7.96,11.01,-0.79,13.6
19.151246070861816,9.62,11.2,0.26,14.76
19.160351991653442,9.65,10.38,1.95,14.3
19.171074151992798,8.56,7.57,2.99,11.81
19.1805100440979,8.47,5.63,0.41,10.17
19.1910560131073,12.08,3.36,-1.18,12.59
19.220476865768433,16.02,3.07,-0.54,16.32
19.22284483909607,17.26,3.62,-1.89,17.73
19.224508047103882,17.84,1.85,-3.07,18.19
19.23036217689514,18.4,1.84,-4.33,18.99
19.240450143814087,16.22,3.3,-4.7,17.2
19.250359058380127,11.44,4.12,-6.38,13.73
19.26103711128235,0.25,5.05,-10.51,11.66
19.271201848983765,-14.3,14.06,-7.24,21.32
19.28125309944153,-17.04,20.17,0.03,26.4
19.291712045669556,2.99,7.08,1.83,7.9
19.321209192276,12.42,-0.31,1.72,12.54
19.32402801513672,11.02,2.58,0.8,11.34
19.32575798034668,11.52,0.95,5.43,12.77
19.331215143203735,13.89,-5.74,5.44,15.98
19.34073305130005,9.35,-3.09,3.25,10.36
19.351433992385864,3.05,-1.78,3.57,5.02
19.361898183822632,-0.94,0.45,0.75,1.28
19.371623039245605,-1.82,2.26,-3.97,4.91
19.382251977920532,0.56,2.32,-5.62,6.1
19.39237904548645,4.61,1.14,-4.41,6.48
19.423585176467896,6.43,0.02,-3.25,7.2
19.426524877548218,4.97,-0.6,-2.06,5.41
19.428173065185547,2.13,-0.59,0.01,2.21
19.43193793296814,-0.42,-0.07,2.05,2.09
19.44187903404236,-1.81,0.24,3.08,3.58
19.451802968978882,-1.77,0.02,3.39,3.82
19.462377071380615,-0.88,-0.22,1.79,2.0
19.472266912460327,0.47,-0.2,0.19,0.54
19.48231291770935,1.32,-0.16,-0.55,1.43
19.493427991867065,0.95,0.19,-0.86,1.29
19.52314019203186,-0.13,0.49,-0.52,0.72
19.525627851486206,-1.3,0.46,0.18,1.39
19.527258157730103,-2.19,0.36,0.58,2.29
19.532227039337158,-2.61,0.36,0.77,2.74
19.546683073043823,-2.45,0.21,0.66,2.54
19.552510976791382,-1.48,0.2,0.03,1.49
19.563102960586548,-0.63,0.3,-0.29,0.75
19.57300591468811,-0.58,0.44,-0.25,0.76
19.583542108535767,-1.0,0.39,0.11,1.07
19.59417700767517,-1.2,0.37,0.69,1.43
19.622443914413452,-1.0,0.61,0.4,1.23
19.62429690361023,-0.62,1.2,0.08,1.35
19.625974893569946,-0.71,1.83,-0.09,1.96
19.63273310661316,-1.22,1.86,-0.05,2.22
19.64256000518799,-2.18,1.57,-0.6,2.75
19.65329098701477,-3.08,1.54,-0.86,3.54
19.66310715675354,-3.62,1.47,-0.7,3.96
19.673590898513794,-3.68,1.6,-0.41,4.03
19.68381094932556,-3.7,2.14,-0.19,4.27
19.69440484046936,-3.86,2.7,0.39,4.72
19.724186182022095,-4.14,2.99,0.37,5.12
19.726403951644897,-3.93,2.91,0.31,4.89
19.728039979934692,-3.56,2.97,0.52,4.66
19.73324203491211,-3.74,3.38,1.31,5.2
19.746602058410645,-4.67,3.97,2.46,6.6
19.753656148910522,-5.89,4.54,3.15,8.07
19.763697862625122,-7.02,5.12,3.06,9.21
19.774120092391968,-7.7,5.82,2.56,9.98
19.78412699699402,-8.77,6.58,1.9,11.12
19.795148134231567,-11.29,7.08,1.35,13.39
19.82431387901306,-14.41,7.34,0.72,16.18
19.827329874038696,-16.52,7.77,0.32,18.25
19.82901692390442,-16.57,8.56,0.35,18.65
19.833854913711548,-14.0,9.52,0.9,16.95
19.844727039337158,-8.6,11.23,1.52,14.22
19.854614973068237,-2.15,13.2,2.99,13.7
19.864624977111816,2.3,13.02,3.41,13.65
19.874844074249268,-0.3,10.44,5.42,11.76
19.884698152542114,-6.06,6.62,5.32,10.43
19.895798921585083,-10.39,3.27,5.43,12.17
19.9249370098114,-12.62,1.38,4.94,13.62
19.926954984664917,-10.9,1.24,6.88,12.94
19.92843985557556,-4.55,2.8,6.33,8.28
19.934202909469604,4.91,3.22,-0.45,5.88
19.944865942001343,11.52,-1.43,-1.2,11.67
19.954532861709595,4.68,-3.22,2.16,6.07
19.96503710746765,-5.53,-2.67,3.77,7.2
19.97542691230774,-9.79,-4.81,3.88,11.57
19.985461950302124,-11.97,-7.15,1.92,14.07
19.996244192123413,-12.85,-6.41,-1.0,14.39
20.025989055633545,-9.59,-3.81,-2.12,10.53
20.028309106826782,-5.75,-2.67,-1.09,6.43
20.029988050460815,-4.27,-2.68,-0.21,5.04
20.034764051437378,-3.82,-3.28,0.04,5.03
20.045621156692505,-3.7,-3.97,-0.09,5.42
20.055147886276245,-3.7,-4.26,-0.22,5.64
20.065519094467163,-3.49,-4.04,-0.28,5.34
20.076367139816284,-3.27,-3.38,-0.46,4.72
20.085927963256836,-2.99,-2.48,-0.43,3.9
20.096400022506714,-2.81,-1.7,-0.37,3.3
20.123857021331787,-3.06,-1.02,0.35,3.24
20.12616991996765,-3.44,-0.14,1.86,3.91
20.127791166305542,-3.05,1.07,1.23,3.45
20.1356840133667,-0.99,2.78,-0.89,3.08
20.14777398109436,1.89,4.17,-1.49,4.81
20.156286001205444,4.31,5.28,-1.65,7.01
20.167012929916382,6.17,6.21,-2.31,9.05
20.176771879196167,6.99,6.59,-2.9,10.03
20.186997175216675,6.21,7.11,-2.74,9.82
20.196934938430786,5.28,8.11,-2.41,9.97
20.22766399383545,6.11,8.83,-2.1,10.94
20.22954297065735,8.53,9.47,-2.05,12.9
20.231175184249878,11.5,10.58,-1.73,15.72
20.25045895576477,13.31,9.65,-1.31,16.49
20.25293517112732,13.15,6.88,-0.62,14.85
20.263296842575073,12.18,3.94,-2.42,13.02
20.2668399810791,12.29,2.51,-3.44,13.0
20.27955412864685,14.26,2.81,-2.54,14.75
20.287275075912476,16.22,2.93,-3.25,16.79
20.297425031661987,17.05,2.37,-3.6,17.58
20.324490070343018,16.75,2.59,-3.83,17.37
20.32665705680847,16.21,5.27,-4.72,17.68
20.32797884941101,6.98,6.34,-5.26,10.79
20.33709406852722,-10.39,10.0,-1.74,14.52
20.34691309928894,-20.15,18.95,-0.61,27.66
20.357590913772583,-4.09,10.56,0.07,11.32
20.367570161819458,11.21,-0.01,2.77,11.54
20.377710103988647,13.66,2.22,4.32,14.49
20.387777090072632,16.09,0.33,2.37,16.26
20.398261070251465,17.47,-2.42,-4.22,18.13
20.428591012954712,8.04,-1.21,-1.05,8.19
20.431051015853882,1.66,-1.98,2.85,3.84
20.432682037353516,-0.82,-0.85,2.58,2.83
20.451277017593384,-1.84,0.59,-1.43,2.4
20.453709840774536,0.66,1.47,-4.46,4.74
20.464555978775024,4.6,1.07,-3.28,5.75
20.468137979507446,6.04,0.32,-2.47,6.53
20.48036503791809,4.76,-0.38,-1.71,5.07
20.48869299888611,2.33,-0.63,0.01,2.41
20.498775005340576,0.28,-0.22,1.65,1.68
20.530200958251953,-0.69,0.17,2.2,2.31
20.533098936080933,-0.78,0.29,1.86,2.03
20.534735918045044,-0.32,0.19,1.16,1.21
20.55086588859558,0.45,0.01,0.63,0.77
20.553349018096924,0.88,-0.04,0.09,0.88
20.56460690498352,0.63,0.05,-0.16,0.65
20.5688259601593,-0.2,0.27,0.0,0.33
20.582175970077515,-1.16,0.51,0.15,1.27
20.588731050491333,-1.72,0.56,0.23,1.82
20.59906506538391,-1.8,0.48,0.22,1.87
20.624948024749756,-1.51,0.33,0.22,1.56
20.62710690498352,-1.14,0.26,0.13,1.17
20.628924131393433,-0.73,0.44,-0.1,0.85
20.63872003555298,-0.65,0.57,-0.28,0.9
20.64926791191101,-0.92,0.5,-0.01,1.04
20.659456968307495,-1.16,0.27,0.16,1.2
20.66972804069519,-1.09,0.11,-0.07,1.09
20.67962384223938,-0.91,0.32,-0.2,0.98
20.68958806991577,-0.79,1.17,-0.12,1.41
20.70005488395691,-1.06,1.71,-0.15,2.01
20.73040199279785,-1.95,1.55,-0.06,2.49
20.7329580783844,-2.9,1.22,-0.08,3.14
20.734616994857788,-3.31,1.23,-0.19,3.53
20.75098204612732,-3.16,1.27,-0.02,3.4
20.75344204902649,-3.15,1.53,0.04,3.5
20.763870000839233,-3.21,1.98,0.46,3.79
20.76981806755066,-3.7,2.7,0.92,4.67
20.78031301498413,-4.22,3.07,1.27,5.37
20.79014801979065,-4.35,3.13,0.72,5.4
20.80065107345581,-4.13,3.14,0.36,5.2
20.83141589164734,-4.05,3.36,0.23,5.26
20.834223985671997,-4.64,3.82,0.62,6.04
20.83640217781067,-5.85,4.42,1.14,7.42
20.850702047348022,-7.01,4.99,1.6,8.75
20.853150129318237,-7.82,5.8,1.4,9.83
20.863043069839478,-8.7,6.86,1.24,11.14
20.87023901939392,-10.75,7.6,1.41,13.24
20.881025075912476,-13.63,7.96,1.74,15.87
20.89074206352234,-16.35,8.66,1.77,18.58
20.900781869888306,-16.06,9.39,2.2,18.73
20.931440114974976,-12.08,9.67,2.61,15.69
20.933892011642456,-6.79,11.25,2.89,13.45
20.935550928115845,0.02,12.67,2.52,12.91
20.951240062713623,1.51,12.89,4.96,13.89
20.953221082687378,-3.85,10.51,6.8,13.09
20.964107036590576,-8.42,6.37,6.15,12.21
20.970956087112427,-10.44,3.25,5.62,12.29
20.98138403892517,-11.29,1.5,5.34,12.57
20.99130606651306,-9.66,1.07,7.36,12.19
21.00180697441101,-4.63,2.63,7.77,9.41
21.03233504295349,4.1,3.62,0.07,5.46
21.0351779460907,12.82,0.11,-2.46,13.05
21.037534952163696,9.45,-2.16,1.49,9.8
21.050899028778076,-2.29,-1.37,3.63,4.5
21.053282976150513,-7.4,-3.35,4.58,9.32
21.062932014465332,-9.88,-6.28,3.29,12.16
21.071553945541382,-11.71,-7.07,0.36,13.68
21.08236002922058,-11.45,-4.79,-1.46,12.49
21.092164039611816,-7.69,-3.01,-0.78,8.29
21.102508068084717,-5.26,-2.59,0.48,5.88
21.130987882614136,-3.95,-2.91,0.94,4.99
21.133084058761597,-2.76,-3.78,1.01,4.78
21.13472604751587,-2.31,-4.49,0.8,5.11
21.152490854263306,-2.6,-4.86,0.66,5.55
21.154921054840088,-3.1,-4.7,0.53,5.65
21.16311502456665,-3.55,-4.02,0.21,5.36
21.171994924545288,-3.89,-3.16,-0.11,5.01
21.183418035507202,-3.9,-2.25,-0.08,4.5
21.192514181137085,-3.51,-1.56,0.43,3.86
21.202762842178345,-2.59,-1.1,1.03,2.99
21.23237109184265,-1.46,-0.58,1.16,1.95
21.234467029571533,-0.39,0.37,0.68,0.86
21.236024141311646,0.8,1.75,-0.3,1.94
21.250139951705933,2.18,3.48,-1.26,4.29
21.251947164535522,3.42,5.18,-1.64,6.42
21.26486301422119,4.49,6.51,-1.74,8.09
21.27294898033142,5.4,8.05,-1.55,9.81
21.283517122268677,6.44,9.83,-1.2,11.81
21.293922185897827,7.87,11.51,-0.87,13.97
21.30476403236389,9.55,11.9,-0.46,15.26
21.332987070083618,10.32,11.23,0.17,15.25
21.335556983947754,9.58,9.63,0.64,13.59
21.337249994277954,8.86,7.16,-0.15,11.39
21.34914803504944,10.55,5.78,-3.78,12.6
21.35284686088562,14.57,3.93,-4.95,15.88
21.365554094314575,17.53,2.68,-3.18,18.01
21.37335205078125,17.94,2.95,-3.56,18.52
21.38346791267395,17.26,3.05,-3.64,17.9
21.393774032592773,16.91,2.37,-3.23,17.37
21.40403699874878,17.84,4.04,-4.14,18.75
21.431083917617798,11.22,4.51,-5.9,13.45
21.433423042297363,-4.65,9.02,-6.54,12.07
21.435111045837402,-18.03,21.77,-2.18,28.35
21.451658964157104,-12.47,17.35,-1.76,21.43
21.453468084335327,5.45,1.46,1.63,5.87
21.464897871017456,11.23,0.72,2.64,11.55
21.473893880844116,13.62,-0.32,3.91,14.17
21.48436713218689,15.9,-3.93,0.11,16.37
21.494445085525513,11.07,-1.5,-0.18,11.17
21.504860162734985,4.55,-2.2,3.5,6.14
21.534512042999268,0.7,-1.2,4.04,4.27
21.53735089302063,-2.15,0.83,0.69,2.4
21.53900408744812,-2.6,2.22,-3.73,5.05
21.550244092941284,0.6,2.33,-4.95,5.5
21.55435800552368,5.11,0.44,-4.31,6.69
21.564910173416138,6.78,-0.82,-3.18,7.53
21.57518696784973,4.93,-0.87,-1.22,5.15
21.58536696434021,1.79,-0.68,0.96,2.14
21.595178842544556,-0.72,-0.13,1.71,1.85
21.604989051818848,-1.82,0.16,2.52,3.11
21.632436990737915,-1.61,0.0,2.58,3.04
21.63465905189514,-0.61,-0.11,1.42,1.54
21.6358380317688,0.49,-0.08,0.09,0.5
21.651745080947876,1.08,0.01,-0.82,1.35
21.65469717979431,0.95,0.17,-0.87,1.29
21.66579794883728,0.11,0.29,-0.23,0.38
21.675904989242554,-1.26,0.39,0.45,1.39
21.68559718132019,-2.45,0.35,0.96,2.65
21.695855855941772,-3.23,0.11,0.92,3.36
21.70610499382019,-2.1,0.32,0.17,2.13
21.735543966293335,-0.6,0.14,-0.16,0.63
21.73826503753662,-0.45,0.25,-0.26,0.57
21.739906072616577,-1.16,0.12,0.14,1.17
21.74964213371277,-1.88,-0.01,0.53,1.95
21.755519151687622,-2.09,0.09,0.82,2.24
21.76595401763916,-1.61,0.59,0.94,1.95
21.77597212791443,-1.1,1.38,0.85,1.95
21.7862651348114,-1.22,1.61,0.39,2.05
21.796818017959595,-1.68,1.44,-0.08,2.21
21.806446075439453,-2.31,1.44,-0.15,2.72
21.836318016052246,-2.85,1.59,-1.28,3.5
21.83914589881897,-2.89,2.01,-1.4,3.78
21.841345071792603,-2.95,2.17,-1.28,3.87
21.850507974624634,-2.94,2.53,-0.76,3.95
21.85626196861267,-3.35,2.95,-0.15,4.46
21.86681294441223,-3.69,3.08,0.42,4.82
21.876557111740112,-3.47,3.08,0.75,4.69
21.887585878372192,-3.52,3.23,1.23,4.93
21.897074937820435,-4.4,3.41,1.54,5.77
21.907149076461792,-5.38,3.87,1.56,6.8
21.93661904335022,-6.0,4.44,1.37,7.58
21.939470052719116,-7.01,5.03,0.76,8.66
21.941664934158325,-8.44,5.85,-0.48,10.28
21.94922399520874,-10.04,6.97,-1.68,12.33
21.956998109817505,-12.1,7.62,-2.07,14.44
21.967418909072876,-13.72,7.05,-1.41,15.48
21.97779393196106,-13.83,7.24,0.14,15.61
21.987952947616577,-13.99,8.65,1.81,16.54
21.99776291847229,-11.78,9.75,3.9,15.78
22.007596969604492,-5.52,11.24,3.66,13.04
22.035799980163574,1.95,11.99,2.13,12.33
22.037925958633423,3.75,11.51,5.24,13.19
22.03955602645874,-2.57,9.69,7.98,12.81
22.0493381023407,-9.16,6.43,6.79,13.09
22.057651042938232,-11.98,2.97,5.57,13.54
22.06773018836975,-13.14,0.62,4.97,14.06
22.07795000076294,-11.27,-0.18,5.59,12.58
22.088101148605347,-6.01,1.84,6.65,9.15
22.098140001296997,1.78,3.39,-0.15,3.83
22.108438968658447,10.29,0.51,-3.8,10.98
22.137943983078003,7.69,-1.39,1.15,7.89
22.139986038208008,-3.33,-0.7,3.7,5.02
22.14129090309143,-8.12,-3.43,4.82,10.04
22.148721933364868,-10.3,-6.73,3.82,12.88
22.15760898590088,-11.84,-7.65,0.74,14.11
22.168493032455444,-10.9,-5.41,-1.99,12.33
22.178256034851074,-7.09,-3.29,-2.09,8.09
22.188690900802612,-4.76,-2.62,-1.39,5.6
22.19975209236145,-4.03,-2.68,-1.0,4.94
22.20909094810486,-3.78,-3.4,-0.51,5.1
22.23916506767273,-3.88,-4.22,-0.11,5.73
22.24148917198181,-4.37,-4.64,0.0,6.37
22.243149042129517,-5.05,-4.21,-0.17,6.57
22.249063968658447,-5.46,-2.99,-0.48,6.24
22.258543014526367,-5.06,-1.7,-0.53,5.36
22.26847815513611,-3.96,-0.71,-0.37,4.04
22.27907395362854,-2.89,0.01,-0.38,2.91
22.28933310508728,-2.11,0.58,-0.66,2.28
22.299132108688354,-1.33,1.72,-1.36,2.56
22.309854984283447,0.12,3.48,-2.72,4.41
22.34015703201294,2.36,5.7,-4.35,7.54
22.34275984764099,5.14,7.69,-5.25,10.63
22.344470024108887,7.67,8.52,-5.16,12.57
22.34928297996521,9.14,8.29,-4.61,13.17
22.36563801765442,9.53,7.7,-4.13,12.92
22.36919903755188,9.5,8.06,-3.57,12.95
22.380883932113647,8.96,8.37,-2.86,12.59
22.38967204093933,9.56,8.64,-1.72,13.0
22.399919033050537,10.66,8.19,1.35,13.51
22.4098961353302,9.85,6.0,2.75,11.85
22.440932989120483,9.01,5.16,0.26,10.38
22.44276213645935,13.41,3.24,-0.5,13.8
22.444455862045288,17.8,1.05,1.11,17.86
22.44971013069153,16.49,2.2,-0.44,16.64
22.46528697013855,14.87,2.83,-1.65,15.22
22.470062971115112,13.78,4.14,-2.21,14.55
22.48105001449585,9.99,6.32,-8.8,14.73
22.490349054336548,-2.59,12.71,-11.47,17.31
22.500709056854248,-16.76,19.86,1.78,26.04
22.511232137680054,-6.56,10.06,3.26,12.44
22.541406869888306,13.0,-0.3,2.97,13.33
22.543352842330933,18.34,2.36,5.23,19.21
22.545035123825073,23.68,0.57,-4.01,24.02
22.54992985725403,18.71,-1.33,-5.83,19.64
22.564581155776978,4.43,-1.51,2.35,5.23
22.570215940475464,-0.7,-2.79,5.36,6.08
22.58287787437439,-3.39,-1.5,2.8,4.64
22.590841054916382,-1.64,0.5,-2.69,3.18
22.600710153579712,3.3,1.55,-3.3,4.91
22.611912965774536,6.2,1.62,-1.61,6.6
22.638764142990112,5.45,0.47,-1.39,5.64
22.640830993652344,2.84,-0.58,-0.58,2.95
22.642557859420776,0.95,-0.56,0.49,1.2
22.650577068328857,0.16,-0.03,1.03,1.04
22.661206007003784,-0.42,0.42,1.41,1.52
22.67100501060486,-0.96,0.57,1.36,1.75
22.681284189224243,-0.99,0.34,0.85,1.34
22.69152808189392,-0.45,0.05,0.53,0.69
22.701650857925415,0.0,-0.08,0.34,0.34
22.71210217475891,-0.04,-0.02,0.19,0.19
22.740484952926636,-0.51,0.13,0.25,0.58
22.74275803565979,-1.09,0.18,0.41,1.17
22.7445809841156,-1.56,0.1,0.5,1.64
22.751368045806885,-1.75,0.14,0.46,1.81
22.76183009147644,-1.75,0.21,0.46,1.82
22.772150993347168,-1.67,0.3,0.36,1.73
22.782387018203735,-1.28,0.34,0.26,1.34
22.792371034622192,-1.21,0.15,0.26,1.24
22.802989959716797,-1.24,-0.11,0.47,1.33
22.813027143478394,-1.24,-0.06,0.53,1.34
22.84323501586914,-0.93,0.31,0.47,1.08
22.84525418281555,-0.66,1.09,0.21,1.29
22.846930027008057,-0.8,1.49,0.1,1.69
22.852041006088257,-1.23,1.09,-0.31,1.67
22.862094163894653,-1.59,0.99,-0.59,1.96
22.872915029525757,-1.98,1.11,-0.42,2.3
22.882760047912598,-2.64,1.46,-0.53,3.06
22.8927800655365,-3.01,1.73,-0.4,3.49
22.902837991714478,-3.0,2.06,-0.13,3.64
22.913596868515015,-3.24,2.46,0.3,4.07
22.942893981933594,-3.76,2.52,0.47,4.55
22.945689916610718,-3.9,2.32,0.25,4.54
22.94737410545349,-3.36,2.1,0.02,3.96
22.952478170394897,-2.88,2.31,0.16,3.69
22.96306800842285,-3.12,2.95,0.9,4.38
22.973498106002808,-4.21,3.66,1.84,5.87
22.983213186264038,-5.4,4.41,2.32,7.34
22.993653059005737,-6.3,5.03,2.55,8.45
23.003749132156372,-7.12,5.83,2.19,9.45
23.01430606842041,-8.43,6.66,1.77,10.88
23.045379877090454,-10.27,7.19,1.64,12.64
23.048346996307373,-12.39,7.51,1.76,14.59
23.050429105758667,-14.06,8.04,1.95,16.31
23.05331301689148,-14.55,8.51,2.57,17.05
23.063297986984253,-12.83,9.34,2.71,16.09
23.07350206375122,-8.74,10.43,3.47,14.04
23.083770036697388,-2.59,12.01,3.06,12.66
23.094326972961426,2.35,11.74,4.11,12.65
23.10407519340515,0.04,10.06,6.78,12.13
23.114600896835327,-5.98,6.81,6.91,11.39
23.14381718635559,-9.41,3.77,5.67,11.61
23.14580798149109,-9.35,1.84,5.02,10.77
23.147434949874878,-7.3,0.6,6.56,9.83
23.15340805053711,-3.6,2.11,5.48,6.88
23.163923978805542,2.76,1.93,1.91,3.87
23.174483060836792,6.55,-1.11,1.94,6.92
23.18434500694275,1.63,-2.21,2.39,3.64
23.194982051849365,-4.85,-2.38,2.68,6.03
23.20463490486145,-8.21,-3.74,2.22,9.29
23.216285943984985,-10.14,-4.78,0.7,11.23
23.244797945022583,-9.61,-4.64,-0.69,10.69
23.24674105644226,-6.57,-3.91,-0.82,7.68
23.248548984527588,-4.0,-3.45,-0.12,5.28
23.254400968551636,-2.95,-3.69,0.47,4.74
23.26463484764099,-2.68,-4.24,0.7,5.06
23.27502417564392,-2.65,-4.7,0.63,5.43
23.284873008728027,-2.67,-5.0,0.34,5.67
23.295629024505615,-2.79,-5.06,0.24,5.78
23.305140018463135,-2.93,-4.78,0.26,5.61
23.31572699546814,-3.12,-4.55,0.31,5.52
23.347005128860474,-3.38,-3.98,0.25,5.22
23.349513053894043,-3.43,-3.1,0.23,4.62
23.351115942001343,-3.16,-2.35,0.46,3.96
23.368973970413208,-2.62,-1.61,0.99,3.23
23.371433973312378,-1.65,-0.72,1.37,2.26
23.382531881332397,-0.37,0.39,1.28,1.38
23.385856866836548,0.98,1.75,0.92,2.2
23.398135900497437,2.28,3.35,0.42,4.07
23.405885934829712,3.51,4.97,-0.11,6.08
23.41639018058777,4.42,6.46,-0.34,7.83
23.448124170303345,4.81,7.95,0.01,9.29
23.450219869613647,4.91,9.24,0.63,10.48
23.451354026794434,5.0,10.5,0.81,11.65
23.468642950057983,4.58,13.05,0.93,13.86
23.470435857772827,6.72,12.14,1.44,13.95
23.480926036834717,9.61,8.9,1.82,13.22
23.485904932022095,11.49,5.55,-0.57,12.77
23.49791407585144,11.43,3.98,-2.52,12.36
23.50628113746643,11.2,3.09,-2.1,11.8
23.51675009727478,12.01,3.81,-2.17,12.78
23.54450798034668,14.29,3.0,-5.32,15.54
23.546653032302856,16.28,2.32,-6.11,17.54
23.54797387123108,18.33,1.96,-6.69,19.61
23.555979013442993,18.6,4.52,-10.25,21.71
23.56706690788269,11.4,7.27,-15.02,20.2
23.576800107955933,-6.32,12.3,-5.27,14.79
23.589059114456177,-15.43,15.51,4.72,22.38
23.597296953201294,-4.15,7.84,2.81,9.3
23.6070339679718,8.24,3.88,3.81,9.87
23.61744499206543,11.82,1.98,6.61,13.68
23.643025159835815,16.26,-3.18,-1.06,16.6
23.645545959472656,10.28,-1.93,-1.41,10.55
23.647310972213745,2.74,-3.04,3.99,5.71
23.656502962112427,-0.24,-1.96,2.54,3.21
23.667011976242065,-0.96,0.46,-2.75,2.94
23.677404165267944,1.49,1.74,-5.55,6.0
23.687344074249268,5.34,1.49,-4.04,6.85
23.697695016860962,6.9,0.67,-2.14,7.25
23.707545042037964,5.41,-0.45,-1.35,5.59
23.71822500228882,2.36,-0.81,-0.22,2.5
23.74852705001831,-0.36,-0.38,1.87,1.94
23.751103162765503,-1.81,0.11,2.65,3.21
23.752753019332886,-1.76,0.48,2.36,2.98
23.769299030303955,-0.59,0.44,1.34,1.52
23.77179217338562,0.74,0.08,0.48,0.88
23.781543016433716,1.33,-0.12,0.08,1.33
23.787895917892456,1.05,0.03,-0.17,1.06
23.79812002182007,0.23,0.43,-0.03,0.48
23.80818796157837,-0.79,0.63,0.4,1.08
23.81841206550598,-1.67,0.59,0.7,1.9
23.85044002532959,-2.01,0.37,0.74,2.17
23.853250980377197,-1.75,0.23,0.69,1.89
23.855452060699463,-1.46,0.39,0.49,1.58
23.868242025375366,-1.42,0.21,0.09,1.43
23.870671033859253,-1.24,0.5,-0.25,1.36
23.88285803794861,-0.74,0.45,-0.36,0.93
23.888697862625122,-1.09,0.4,-0.02,1.16
23.898701906204224,-1.46,0.24,-0.2,1.49
23.909180879592896,-1.16,0.41,-0.46,1.31
23.91927695274353,-0.61,0.49,-0.06,0.78
23.949627161026,-0.55,0.95,-0.11,1.1
23.9523708820343,-0.79,1.41,-0.06,1.61
23.954665899276733,-1.21,1.12,-0.14,1.65
23.967983961105347,-1.55,0.75,-0.29,1.74
23.969717979431152,-1.86,0.68,-0.42,2.02
23.98224711418152,-2.24,0.77,-0.6,2.44
23.989053964614868,-2.33,0.9,-0.85,2.63
23.9994900226593,-2.34,1.14,-0.69,2.69
24.009469032287598,-2.51,1.49,-0.17,2.92
24.019983053207397,-2.91,1.77,0.29,3.41
24.049885988235474,-3.35,1.94,0.58,3.91
24.052419900894165,-3.29,1.96,0.5,3.86
24.054732084274292,-3.16,2.33,0.34,3.94
24.068531036376953,-3.27,2.71,0.65,4.29
24.070943117141724,-3.83,2.83,1.18,4.9
24.081691026687622,-4.8,3.19,1.65,5.99
24.08964991569519,-5.91,3.49,1.79,7.09
24.099874019622803,-6.68,3.92,1.26,7.84
24.10989999771118,-7.09,4.75,0.57,8.55
24.12079906463623,-8.05,5.72,-0.01,9.87
24.14951491355896,-9.98,6.91,0.45,12.14
24.152025938034058,-13.15,8.18,1.84,15.59
24.15391206741333,-16.25,9.48,2.38,18.96
24.159698009490967,-14.94,9.95,3.28,18.24
24.1699378490448,-11.17,10.59,2.93,15.66
24.180548906326294,-5.44,11.69,1.39,12.96
24.191449880599976,-0.61,12.82,1.87,12.97
24.20069718360901,-2.16,12.77,6.83,14.64
24.21105408668518,-7.25,10.52,7.35,14.73
24.221201181411743,-9.47,6.65,6.2,13.12
24.25424313545227,-9.44,3.13,5.73,11.47
24.256597995758057,-8.84,0.94,4.9,10.15
24.258228063583374,-7.47,-0.18,5.02,9.0
24.2675039768219,-3.33,2.38,4.84,6.33
24.270395040512085,4.51,2.58,-0.71,5.24
24.284180879592896,11.01,-1.0,-2.48,11.33
24.290845155715942,5.31,-1.3,1.57,5.68
24.301337957382202,-3.28,-1.11,4.0,5.29
24.311572074890137,-6.57,-4.31,5.23,9.43
24.321377992630005,-8.54,-7.42,3.92,11.97
24.349826097488403,-10.38,-7.98,1.24,13.15
24.35196805000305,-10.98,-5.6,-0.91,12.35
24.353615045547485,-8.29,-3.77,-1.01,9.16
24.369500875473022,-6.02,-3.11,-0.18,6.77
24.372107982635498,-4.76,-3.1,0.33,5.69
24.38346004486084,-3.76,-3.64,0.3,5.24
24.391876935958862,-3.02,-4.19,-0.05,5.16
24.401779890060425,-2.67,-4.32,-0.09,5.07
24.412328958511353,-2.46,-4.01,-0.17,4.7
24.422567129135132,-2.4,-3.33,-0.55,4.14
24.452659845352173,-2.37,-2.32,-0.85,3.42
24.455382108688354,-1.97,-1.58,-0.69,2.61
24.456998109817505,-1.36,-1.21,-0.15,1.82
24.46897602081299,-0.73,-0.93,0.14,1.19
24.471925020217896,-0.22,-0.29,-0.04,0.36
24.482527017593384,0.48,1.06,-0.75,1.38
24.49233603477478,1.72,2.74,-1.6,3.6
24.502531051635742,3.45,4.55,-2.13,6.09
24.513731002807617,5.23,5.76,-2.54,8.18
24.52301287651062,6.22,6.09,-2.11,8.95
24.55313801765442,6.41,7.39,-1.56,9.9
24.556442975997925,6.59,8.78,-1.89,11.13
24.558125019073486,7.1,9.56,-1.41,11.99
24.567599058151245,8.17,9.49,0.06,12.52
24.572755098342896,8.79,8.99,1.98,12.72
24.587027072906494,8.25,7.5,2.93,11.52
24.59303593635559,7.98,5.72,1.54,9.93
24.602853059768677,10.33,4.9,-1.44,11.52
24.61319899559021,15.01,3.6,-1.18,15.48
24.623328924179077,17.6,2.86,0.41,17.83
24.651178121566772,17.04,3.15,-0.25,17.33
24.65318989753723,15.27,2.64,-1.06,15.53
24.65460515022278,15.72,2.68,-3.7,16.37
24.662451028823853,13.35,4.9,-4.68,14.97
24.673024892807007,3.13,5.41,-7.26,9.57
24.683642148971558,-11.96,11.61,-4.29,17.21
24.6939480304718,-19.06,18.95,-0.88,26.89
24.703734159469604,-2.33,8.05,0.89,8.42
24.713808059692383,11.65,-1.5,3.74,12.32
24.724143981933594,13.74,0.19,3.61,14.2
24.754209995269775,15.25,-1.6,2.81,15.58
24.756815195083618,13.32,-4.76,2.67,14.39
24.758448839187622,6.02,-1.49,4.0,7.37
24.768107175827026,0.92,-1.83,4.46,4.9
24.77376914024353,-1.34,0.18,-2.69,3.01
24.783983945846558,-1.0,2.14,-5.62,6.09
24.79420304298401,1.24,2.8,-3.13,4.37
24.804773092269897,3.99,1.58,-2.88,5.16
24.81480097770691,5.77,-0.26,-3.16,6.58
24.82468605041504,5.11,-1.04,-1.93,5.56
24.85493493080139,2.42,-0.75,0.3,2.55
24.857843160629272,-0.17,0.0,2.12,2.12
24.85947012901306,-1.44,0.51,2.92,3.29
24.868263959884644,-1.04,0.22,2.64,2.84
24.87409996986389,0.09,-0.11,1.29,1.29
24.884650945663452,1.44,-0.05,0.43,1.5
24.89480996131897,1.83,0.22,-0.36,1.87
24.905330896377563,1.09,0.49,-0.59,1.33
24.915153980255127,-0.15,0.55,-0.08,0.57
24.9255690574646,-1.25,0.68,0.31,1.45
24.95559811592102,-1.72,0.85,0.49,1.98
24.958032846450806,-1.79,0.78,0.63,2.05
24.959666967391968,-1.72,0.34,0.22,1.76
24.967319011688232,-1.26,0.3,-0.11,1.29
24.975182056427002,-0.58,0.53,-0.95,1.23
24.985315084457397,-0.73,0.94,-1.26,1.73
24.995628118515015,-1.44,0.58,-0.62,1.67
25.005691051483154,-1.61,0.22,-0.33,1.65
25.01583218574524,-1.29,0.15,0.39,1.35
25.026010036468506,-1.13,0.34,0.89,1.47
25.05544686317444,-1.17,0.79,1.04,1.75
25.058200120925903,-1.36,1.26,0.88,2.05
25.06028699874878,-1.85,1.31,0.47,2.31
25.067378044128418,-2.49,1.08,-0.02,2.71
25.075177907943726,-2.96,1.19,-0.68,3.26
25.085882902145386,-2.99,1.56,-1.16,3.56
25.096357107162476,-3.06,1.87,-1.04,3.73
25.10623812675476,-3.51,2.19,-0.68,4.19
25.11677384376526,-3.77,2.35,-0.44,4.46
25.12651300430298,-3.34,2.34,-0.22,4.08
25.15754199028015,-2.89,2.94,0.33,4.13
25.15962815284729,-3.3,3.6,1.24,5.03
25.161278009414673,-4.59,3.79,1.95,6.26
25.16669011116028,-5.73,4.13,2.23,7.4
25.176102876663208,-6.62,4.81,2.26,8.48
25.186397075653076,-7.6,5.57,1.91,9.61
25.196446180343628,-8.89,6.37,1.48,11.03
25.206802129745483,-10.76,6.99,1.01,12.87
25.21664595603943,-13.26,7.33,0.73,15.16
25.227504014968872,-16.17,7.7,0.63,17.92
25.259351015090942,-17.0,7.99,0.57,18.79
25.261852025985718,-13.85,8.27,0.81,16.15
25.263509035110474,-8.12,10.1,1.26,13.02
25.267083883285522,-1.21,11.78,2.36,12.07
25.28296208381653,3.39,12.06,3.89,13.11
25.286822080612183,-0.66,11.01,6.86,12.98
25.29885196685791,-7.1,7.65,6.2,12.13
25.307131052017212,-10.0,3.93,5.31,11.98
25.317373991012573,-10.52,1.52,4.85,11.68
25.32779288291931,-10.21,0.81,5.27,11.51
25.356263875961304,-8.01,1.07,7.43,10.97
25.35828399658203,-2.61,3.26,3.87,5.69
25.360023021697998,6.48,2.55,-2.37,7.35
25.367491960525513,11.6,-1.28,-0.94,11.7
25.377558946609497,3.45,-1.1,1.88,4.08
25.387578010559082,-4.39,-0.87,3.28,5.54
25.398009061813354,-6.03,-3.3,4.69,8.32
25.408087015151978,-6.5,-5.54,4.29,9.55
25.418225049972534,-6.52,-7.06,1.99,9.81
25.428943872451782,-6.81,-6.26,-0.64,9.27
25.459009885787964,-7.29,-4.23,-0.98,8.48
25.461165189743042,-6.62,-3.71,0.32,7.59
25.46259093284607,-5.34,-4.02,1.3,6.8
25.467859029769897,-4.01,-4.51,1.54,6.22
25.48288607597351,-3.22,-4.91,1.22,5.99
25.488052129745483,-3.12,-5.02,0.55,5.93
25.499677896499634,-3.35,-4.73,0.26,5.8
25.508713960647583,-3.39,-4.14,0.22,5.35
25.51850390434265,-3.41,-3.27,-0.08,4.72
25.529175996780396,-3.13,-2.47,-0.39,4.0
25.560062170028687,-2.62,-1.55,-0.17,3.04
25.562029123306274,-1.44,-0.93,0.11,1.71
25.56367301940918,-0.4,-0.36,0.29,0.61
25.568397045135498,-0.01,0.68,0.08,0.68
25.585880994796753,0.33,2.44,-0.79,2.58
25.590212106704712,1.29,4.52,-1.86,5.05
25.598628997802734,2.6,6.6,-2.39,7.48
25.608832120895386,4.23,7.73,-2.57,9.17
25.619001150131226,5.66,8.85,-2.27,10.74
25.629639863967896,7.03,10.05,-1.91,12.41
25.658267974853516,9.06,11.24,-1.52,14.51
25.660274028778076,11.99,11.91,-1.18,16.94
25.66138505935669,14.41,10.55,-0.17,17.85
25.669196844100952,14.26,5.77,1.6,15.46
25.679033994674683,12.82,2.38,0.95,13.07
25.689533948898315,10.87,1.51,-0.2,10.97
25.69954514503479,8.55,5.28,0.47,10.05
25.709794998168945,10.39,5.72,-1.52,11.95
25.720094919204712,15.01,2.71,-2.52,15.45
25.730458974838257,18.47,2.18,-2.51,18.76
25.7606520652771,20.66,3.92,-9.6,23.11
25.763614892959595,9.64,9.06,-13.87,19.16
25.765347957611084,-9.72,22.66,-2.5,24.78
25.770032167434692,-11.8,22.64,2.66,25.66
25.77950692176819,5.98,3.28,7.19,9.91
25.79027795791626,16.28,-7.12,0.74,17.78
25.800238847732544,11.44,-3.58,-6.62,13.69
25.81048607826233,5.12,-2.36,0.31,5.64
25.820947885513306,4.13,-3.68,7.75,9.52
25.83080506324768,3.61,-2.29,4.08,5.9
25.86133313179016,2.16,-0.1,-4.27,4.78
25.864073991775513,2.07,2.49,-5.72,6.57
25.86573815345764,4.19,2.68,-2.51,5.57
25.870425939559937,5.95,1.06,-2.18,6.42
25.880043983459473,5.4,-0.09,-3.03,6.19
25.89082407951355,3.21,-0.91,-1.56,3.68
25.90053915977478,0.39,-0.69,1.23,1.46
25.911021947860718,-1.85,-0.02,3.29,3.77
25.921290159225464,-2.43,0.49,2.94,3.84
25.93159794807434,-0.86,0.39,2.12,2.32
25.96071696281433,0.84,0.02,0.79,1.15
25.96383309364319,1.32,-0.06,-0.38,1.37
25.966145038604736,0.74,0.18,-0.63,0.98
25.970993995666504,-0.45,0.58,-0.23,0.76
25.98080611228943,-1.71,0.75,0.38,1.9
25.991131067276,-2.42,0.54,1.07,2.7
26.00151300430298,-2.54,0.53,1.02,2.78
26.01154589653015,-2.26,0.62,0.79,2.47
26.02164101600647,-1.98,0.63,0.21,2.08
26.032548189163208,-1.66,0.6,-0.12,1.76
26.06169605255127,-1.24,0.3,-0.61,1.41
26.06382393836975,-0.85,0.28,-0.91,1.27
26.065428018569946,-0.66,0.45,-0.61,1.0
26.07131314277649,-0.57,0.92,-0.18,1.09
26.081700086593628,-0.81,1.85,-0.11,2.02
26.09162402153015,-1.36,1.69,-0.04,2.16
26.102097988128662,-1.74,0.98,-0.27,2.01
26.112699031829834,-1.52,1.0,-0.42,1.86
26.122462034225464,-1.58,1.06,-0.37,1.93
26.13311505317688,-2.14,1.02,-0.4,2.4
26.161702871322632,-2.56,1.2,-0.19,2.83
26.164757013320923,-2.91,1.32,0.17,3.19
26.16649103164673,-3.21,1.6,0.44,3.61
26.17159104347229,-3.6,2.14,0.82,4.26
26.182147979736328,-3.89,2.68,1.19,4.87
26.19221305847168,-4.04,2.79,1.14,5.04
26.202486038208008,-4.23,2.72,0.6,5.06
26.212987184524536,-3.95,2.8,0.51,4.86
26.22284698486328,-4.32,3.16,0.66,5.39
26.23294997215271,-5.64,3.7,1.21,6.85
26.261362075805664,-7.0,4.42,1.7,8.45
26.264468908309937,-8.26,5.46,1.99,10.09
26.266653060913086,-9.98,6.68,1.91,12.16
26.27233386039734,-12.69,7.49,1.56,14.81
26.28282904624939,-16.62,8.37,0.98,18.63
26.292794942855835,-17.08,9.16,0.79,19.39
26.30304503440857,-13.47,9.94,1.0,16.77
26.313693046569824,-8.76,11.56,1.61,14.59
26.32363200187683,-1.8,13.15,1.04,13.31
26.33419394493103,3.62,13.36,2.36,14.04
26.361878156661987,0.34,11.94,6.51,13.6
26.363724946975708,-7.03,8.39,6.65,12.8
26.365352869033813,-10.88,4.57,5.44,12.99
26.373082876205444,-12.61,2.23,4.37,13.53
26.38338303565979,-13.69,1.66,4.46,14.49
26.39374089241028,-10.39,2.18,6.66,12.53
26.403699159622192,-2.93,3.72,5.09,6.95
26.414010047912598,6.63,1.91,-2.74,7.42
26.423954010009766,11.78,-1.02,-1.6,11.93
26.43471884727478,4.01,-1.32,2.16,4.74
26.465429067611694,-3.85,-2.07,4.08,5.97
26.467916011810303,-7.02,-4.62,4.74,9.64
26.469556093215942,-9.0,-6.93,2.2,11.57
26.487632989883423,-10.2,-6.89,-1.03,12.35
26.490089178085327,-9.24,-4.69,-2.44,10.64
26.50076985359192,-6.98,-3.25,-1.51,7.84
26.504483938217163,-5.36,-2.89,-0.46,6.1
26.516335010528564,-3.9,-3.36,0.0,5.14
26.525057077407837,-2.51,-4.22,0.12,4.91
26.5352840423584,-1.74,-5.1,0.12,5.38
26.564990997314453,-1.98,-5.49,0.09,5.83
26.56707501411438,-2.64,-5.21,0.04,5.84
26.568706035614014,-3.13,-4.46,-0.27,5.45
26.589797019958496,-3.38,-3.3,-0.64,4.76
26.592588186264038,-3.28,-2.39,-0.65,4.11
26.60090398788452,-2.98,-1.75,0.02,3.45
26.604821920394897,-2.57,-1.23,0.98,3.01
26.616986989974976,-2.14,-0.43,1.44,2.61
26.625180959701538,-1.26,0.94,1.09,1.91
26.63558316230774,-0.01,3.32,0.34,3.33
26.663594961166382,1.9,5.39,-0.69,5.75
26.66571307182312,3.87,7.83,-1.31,8.83
26.6673481464386,5.93,9.0,-1.75,10.91
26.674991846084595,7.52,9.91,-1.49,12.52
26.686425924301147,8.54,10.81,-0.95,13.8
26.696033000946045,9.17,11.09,-0.65,14.4
26.70624613761902,9.6,10.76,0.05,14.42
26.715986013412476,10.04,9.77,1.56,14.09
26.72574210166931,10.77,7.15,1.24,12.98
26.736292123794556,12.25,4.61,-3.68,13.59
26.766234159469604,14.97,2.85,-5.52,16.2
26.768810033798218,17.76,2.63,-4.1,18.41
26.770500898361206,18.43,2.67,-5.1,19.3
26.787446975708008,18.18,1.87,-5.32,19.03
26.789857149124146,17.31,1.91,-3.99,17.86
26.799949884414673,16.35,3.98,-4.64,17.45
26.80590796470642,7.8,4.52,-5.87,10.75
26.81673002243042,-8.47,7.67,-7.08,13.44
26.82629418373108,-23.1,18.95,-2.74,30.0
26.836819887161255,-14.53,16.18,0.37,21.74
26.8679358959198,6.82,6.36,6.15,11.17
26.870818853378296,13.61,2.87,7.65,15.87
26.872977018356323,21.17,-2.49,-3.6,21.61
26.887508153915405,18.23,-2.2,-6.29,19.4
26.889631986618042,4.24,-4.04,4.7,7.5
26.901528120040894,0.04,-4.0,5.36,6.68
26.906813859939575,-1.72,-1.81,-1.96,3.17
26.91729187965393,-0.88,1.94,-5.87,6.24
26.927383184432983,4.05,2.77,-2.35,5.44
26.937763929367065,7.1,1.73,-2.51,7.72
26.969074964523315,6.75,0.34,-2.89,7.35
26.97263503074646,3.59,-0.88,-0.43,3.72
26.974927186965942,0.22,-0.89,2.0,2.2
26.98787808418274,-1.41,-0.11,2.72,3.06
26.990503072738647,-1.52,0.46,2.65,3.08
27.000953912734985,-0.74,0.3,1.77,1.94
27.007455110549927,0.36,-0.04,0.85,0.92
27.017515897750854,1.13,0.02,0.01,1.13
27.02793288230896,1.08,0.35,-0.26,1.16
27.03804302215576,0.17,0.56,0.01,0.58
27.06957983970642,-1.3,0.62,0.33,1.47
27.07266902923584,-2.31,0.6,0.66,2.47
27.07495617866516,-2.53,0.54,0.87,2.72
27.085937976837158,-2.32,0.31,0.64,2.42
27.088499069213867,-1.89,0.17,0.11,1.9
27.100556135177612,-0.91,0.55,-0.79,1.32
27.107750177383423,-0.58,0.5,-0.63,0.99
27.11810612678528,-1.11,0.35,-0.35,1.21
27.1286199092865,-1.22,0.15,-0.24,1.25
27.138553857803345,-1.08,0.41,-0.02,1.15
27.16724991798401,-0.74,1.2,-0.08,1.41
27.169862031936646,-0.79,1.56,-0.42,1.79
27.171470880508423,-1.24,1.22,-0.7,1.87
27.177757024765015,-1.61,0.9,-0.71,1.97
27.188202142715454,-1.93,0.83,-0.7,2.21
27.198153972625732,-2.08,0.93,-0.49,2.33
27.20841908454895,-2.17,1.09,0.03,2.42
27.218785047531128,-2.46,1.26,0.48,2.8
27.22917103767395,-2.84,1.58,0.92,3.37
27.239434957504272,-3.49,2.01,1.25,4.21
27.268573999404907,-4.21,2.25,1.28,4.94
27.271415948867798,-4.39,2.01,0.87,4.9
27.273056983947754,-3.91,2.02,0.41,4.42
27.28997802734375,-3.53,2.45,0.55,4.33
27.29254412651062,-4.12,3.18,1.07,5.31
27.30026412010193,-5.26,3.95,1.87,6.83
27.309036016464233,-6.53,4.33,2.16,8.12
27.319350957870483,-7.61,4.92,1.64,9.2
27.329624891281128,-8.53,6.16,1.17,10.58
27.339502096176147,-10.56,7.26,0.69,12.83
27.36888599395752,-13.16,7.91,0.27,15.35
27.370999097824097,-14.94,8.52,0.28,17.2
27.372691869735718,-15.49,9.47,0.44,18.16
27.386122941970825,-14.37,10.43,0.73,17.77
27.389338970184326,-9.94,11.82,1.43,15.51
27.401528120040894,-3.06,13.38,0.93,13.75
27.409913063049316,2.31,13.59,3.17,14.14
27.419923067092896,-0.19,10.48,7.16,12.69
27.43059802055359,-6.49,7.59,5.88,11.58
27.440541982650757,-10.07,4.56,4.62,11.98
27.469768047332764,-11.49,2.12,4.1,12.38
27.47228217124939,-10.71,1.43,4.5,11.7
27.47393298149109,-6.64,2.38,7.06,9.97
27.487489938735962,1.2,3.48,2.59,4.5
27.490077018737793,11.13,1.09,-2.95,11.56
27.501807928085327,12.31,-2.59,-0.53,12.59
27.51046895980835,0.9,-2.21,2.24,3.27
27.52058506011963,-6.06,-3.26,3.53,7.73
27.532460927963257,-9.53,-5.82,3.32,11.64
27.540693998336792,-12.06,-7.77,0.45,14.35
27.5695321559906,-13.63,-6.31,-2.04,15.15
27.571567058563232,-11.15,-3.82,-1.99,11.95
27.57320809364319,-7.2,-3.35,-0.34,7.94
27.591241121292114,-5.23,-3.5,0.56,6.31
27.593531847000122,-3.44,-4.15,0.6,5.42
27.600800037384033,-2.15,-4.74,-0.02,5.2
27.61088490486145,-2.08,-5.02,-0.43,5.45
27.620965003967285,-2.82,-4.75,-0.57,5.55
27.631244897842407,-3.59,-4.21,-0.56,5.56
27.641350030899048,-4.09,-3.21,-0.55,5.22
27.670289993286133,-4.08,-2.22,-0.26,4.65
27.67242693901062,-3.38,-1.52,0.34,3.72
27.674081087112427,-2.01,-0.97,0.84,2.38
27.685837030410767,-0.74,-0.09,0.46,0.87
27.690901041030884,0.2,1.33,-0.61,1.47
27.701680898666382,1.27,3.24,-1.61,3.83
27.711445093154907,2.64,5.37,-2.4,6.44
27.72177505493164,4.14,7.01,-2.31,8.46
27.73201012611389,5.74,8.17,-1.85,10.15
27.742643117904663,7.34,9.17,-1.0,11.78
27.772105932235718,8.2,10.15,-0.04,13.04
27.77422595024109,8.36,10.5,0.44,13.42
27.77591109275818,8.58,10.56,0.94,13.63
27.785688161849976,8.7,10.14,1.77,13.47
27.791763067245483,8.56,7.78,2.73,11.88
27.802227020263672,8.86,4.95,0.97,10.19
27.812159061431885,11.39,3.83,-2.73,12.32
27.823018074035645,15.43,3.04,-2.14,15.87
27.832669973373413,17.33,2.54,-1.58,17.58
27.84299397468567,17.4,1.81,-3.23,17.78
27.871397972106934,16.86,2.07,-3.9,17.42
27.87414002418518,17.22,3.15,-4.81,18.15
27.875799894332886,14.96,6.01,-6.38,17.33
27.886018991470337,3.71,9.02,-11.86,15.35
27.89239001274109,-15.33,17.96,-0.4,23.61
27.902951955795288,-20.99,18.21,3.49,28.0
27.912989854812622,0.43,2.07,3.33,3.94
27.923317193984985,12.7,-2.9,4.28,13.71
27.933528184890747,15.72,-0.03,2.24,15.87
27.943603038787842,19.32,-2.3,1.7,19.53
27.972949028015137,16.15,-2.8,0.04,16.39
27.97567391395569,5.51,-0.48,1.49,5.72
27.977307081222534,-1.06,0.38,-0.54,1.24
27.9863440990448,-3.21,1.1,-3.74,5.04
27.993077993392944,-0.3,1.3,-3.75,3.98
28.00362801551819,4.61,1.1,-3.05,5.63
28.013816118240356,6.46,0.86,-3.62,7.45
28.024133920669556,4.32,-0.13,-1.92,4.72
28.033980131149292,0.57,-0.3,0.92,1.12
28.04409909248352,-1.37,0.04,2.74,3.06
28.07457399368286,-1.29,0.32,3.02,3.29
28.077419996261597,-0.29,0.31,2.38,2.41
28.07987403869629,0.42,0.27,0.88,1.01
28.087053060531616,0.83,0.35,-0.03,0.9
28.09360909461975,0.93,0.35,-0.22,1.01
28.1041738986969,0.51,0.35,0.06,0.62
28.114320993423462,-0.47,0.35,0.62,0.85
28.124819040298462,-1.55,0.38,1.1,1.93
28.13457202911377,-2.3,0.35,1.45,2.74
28.14469885826111,-2.55,0.3,1.25,2.85
28.175899028778076,-2.19,0.07,0.67,2.29
28.178946018218994,-1.51,0.04,0.2,1.52
28.180675983428955,-0.6,-0.11,-0.06,0.61
28.184141874313354,-0.61,-0.23,-0.38,0.75
28.194494009017944,-0.83,0.11,-0.34,0.9
28.2046639919281,-0.74,0.04,-0.23,0.77
28.214918851852417,-0.99,0.17,-0.03,1.0
28.22476100921631,-1.37,0.49,0.2,1.46
28.235490083694458,-1.17,0.79,0.21,1.42
28.245373010635376,-0.81,1.04,0.1,1.32
28.274916887283325,-0.9,1.25,0.05,1.54
28.277323961257935,-1.6,1.29,0.25,2.07
28.27890706062317,-2.63,1.18,0.1,2.88
28.28550410270691,-3.23,1.41,-0.06,3.52
28.294995069503784,-3.2,1.68,-0.23,3.62
28.30548596382141,-3.02,2.05,-0.05,3.65
28.315322160720825,-3.34,2.73,0.29,4.32
28.325566053390503,-3.96,3.22,0.53,5.13
28.33571219444275,-4.4,3.46,0.27,5.6
28.345854997634888,-4.43,3.56,-0.27,5.68
28.37562918663025,-4.31,3.64,-0.74,5.68
28.378265142440796,-4.76,3.52,-0.38,5.93
28.37993311882019,-5.97,3.64,0.51,7.01
28.385858058929443,-7.5,4.23,1.51,8.74
28.39546799659729,-8.98,5.09,2.03,10.51
28.406162977218628,-9.99,6.54,2.38,12.17
28.416206121444702,-11.23,8.13,3.02,14.18
28.425999879837036,-13.92,8.97,3.64,16.95
28.436784029006958,-16.64,8.75,3.54,19.13
28.44658899307251,-15.83,8.85,3.27,18.42
28.47735905647278,-10.67,10.54,2.6,15.22
28.480298042297363,-4.1,12.79,1.38,13.5
28.481945037841797,1.7,13.01,1.97,13.26
28.486162900924683,-0.35,11.58,5.85,12.97
28.50180196762085,-7.69,8.94,6.18,13.31
28.506358861923218,-11.81,4.94,5.57,13.96
28.517613172531128,-11.9,2.23,4.94,13.07
28.52661108970642,-9.32,1.27,5.68,10.98
28.536958932876587,-5.32,3.21,5.98,8.62
28.54737687110901,1.1,3.83,1.11,4.13
28.579108953475952,8.79,0.85,-0.73,8.86
28.581083059310913,8.61,-1.96,2.03,9.06
28.582711935043335,-0.65,-2.04,2.87,3.58
28.587673902511597,-5.73,-3.37,3.12,7.34
28.596688985824585,-8.33,-5.14,1.79,9.95
28.60696506500244,-10.2,-5.78,-0.67,11.74
28.617146015167236,-10.06,-4.79,-1.78,11.28
28.627596139907837,-7.78,-3.71,-1.11,8.69
28.63754105567932,-5.86,-3.46,-0.09,6.8
28.648593187332153,-4.4,-3.96,0.29,5.92
28.67748498916626,-2.94,-4.74,0.26,5.58
28.679548025131226,-2.08,-5.31,0.11,5.7
28.68097186088562,-2.2,-5.26,-0.22,5.7
28.68706488609314,-3.02,-5.02,-0.61,5.89
28.70143699645996,-4.17,-4.37,-0.69,6.07
28.707409143447876,-4.58,-3.43,-0.78,5.77
28.717754125595093,-4.41,-2.23,-0.7,4.99
28.72796893119812,-3.96,-1.05,-0.48,4.12
28.737818956375122,-3.27,-0.23,-0.17,3.28
28.748862981796265,-2.0,0.41,0.1,2.04
28.779290914535522,-0.48,1.17,-0.17,1.27
28.78211998939514,1.09,2.22,-0.96,2.65
28.783766984939575,2.58,3.57,-1.66,4.7
28.78729796409607,3.85,4.64,-2.52,6.53
28.79796814918518,4.76,5.74,-2.71,7.93
28.807783842086792,5.58,6.73,-2.15,9.0
28.81810688972473,6.35,7.5,-1.09,9.88
28.8285710811615,6.85,8.7,-0.26,11.07
28.838342905044556,7.36,9.49,0.03,12.0
28.849534034729004,8.35,9.57,0.71,12.72
28.878338098526,9.63,9.53,2.13,13.71
28.881247997283936,10.65,8.89,2.93,14.17
28.882910013198853,12.0,7.03,1.9,14.03
28.888293027877808,14.08,5.07,-1.2,15.01
28.90207004547119,16.16,3.23,-3.02,16.75
28.908689975738525,16.84,2.47,-2.76,17.24
28.919008016586304,16.34,2.15,-3.5,16.84
28.92916703224182,16.64,1.68,-4.74,17.38
28.939029932022095,17.35,2.52,-5.26,18.3
28.949784994125366,17.82,4.06,-7.21,19.64
28.980077028274536,9.74,5.58,-5.25,12.39
28.983121156692505,-7.13,4.13,-0.43,8.25
28.984833002090454,-22.46,12.8,0.36,25.85
28.988878965377808,-17.01,17.68,-0.72,24.54
28.99891996383667,4.68,5.06,1.94,7.16
29.00985097885132,10.68,0.51,1.78,10.83
29.019412994384766,12.05,2.5,2.14,12.49
29.029844045639038,13.66,-1.79,6.1,15.06
29.03983998298645,13.71,-4.23,2.66,14.59
29.05039405822754,7.53,-0.32,0.16,7.53
29.079407930374146,1.43,-0.38,1.92,2.42
29.08166003227234,-1.47,1.03,1.94,2.64
29.083292961120605,-1.72,1.22,-1.41,2.53
29.089120149612427,0.74,1.44,-5.41,5.64
29.09955096244812,4.47,0.79,-5.3,6.97
29.10981011390686,5.97,0.18,-3.33,6.83
29.120056867599487,4.77,-0.16,-1.37,4.96
29.130532026290894,2.74,-0.45,0.07,2.77
29.14039897918701,0.71,-0.33,1.13,1.37
29.150815963745117,-0.75,0.01,2.21,2.33
29.179749011993408,-1.15,0.04,2.78,3.0
29.182769060134888,-0.68,0.08,1.72,1.85
29.184432983398438,0.18,0.1,0.59,0.62
29.18971610069275,0.59,0.03,-0.12,0.6
29.200390100479126,0.18,0.05,-0.4,0.44
29.210662126541138,-0.63,0.28,0.04,0.69
29.2207350730896,-1.59,0.56,0.64,1.8
29.231269121170044,-2.56,0.44,0.95,2.76
29.240846872329712,-3.14,0.1,0.79,3.23
29.25131106376648,-2.75,0.09,0.43,2.78
29.280750036239624,-1.77,0.12,0.02,1.77
29.28266406059265,-1.35,0.09,-0.15,1.36
29.284312963485718,-1.55,-0.06,0.3,1.57
29.29064702987671,-1.66,-0.22,0.72,1.82
29.300771951675415,-1.32,-0.02,0.74,1.51
29.311259031295776,-0.75,0.84,0.83,1.39
29.32226586341858,-0.48,1.46,0.64,1.66
29.331412076950073,-0.48,1.1,0.16,1.21
29.3416268825531,-0.92,0.67,0.11,1.14
29.351959943771362,-1.38,0.87,-0.78,1.8
29.381734132766724,-1.8,1.25,-1.0,2.4
29.3835871219635,-2.24,1.42,-0.94,2.81
29.385577917099,-2.73,1.96,-0.65,3.42
29.39124298095703,-3.23,2.6,0.27,4.15
29.401446104049683,-3.73,2.76,0.77,4.7
29.411583185195923,-3.81,2.81,0.7,4.78
29.42208218574524,-3.23,2.97,0.37,4.4
29.432388067245483,-2.9,3.45,0.5,4.53
29.442121028900146,-3.6,3.78,0.95,5.3
29.452840089797974,-4.68,4.05,1.44,6.35
29.482298135757446,-5.51,4.55,1.61,7.32
29.484673023223877,-6.13,5.23,1.91,8.28
29.486282110214233,-7.03,6.14,1.98,9.54
29.505462884902954,-8.56,6.86,1.86,11.12
29.507949113845825,-10.99,7.4,1.77,13.36
29.519642114639282,-14.25,8.12,1.47,16.46
29.52251410484314,-15.86,8.44,1.39,18.01
29.534754037857056,-16.05,8.49,1.45,18.21
29.54269003868103,-14.53,8.44,1.58,16.87
29.552808046340942,-10.28,9.59,2.41,14.26
29.581637144088745,-3.1,11.32,2.78,12.06
29.583868980407715,2.49,11.12,3.32,11.86
29.586931943893433,0.76,9.75,5.33,11.13
29.604398012161255,-4.67,6.76,4.78,9.5
29.60615301132202,-8.87,4.46,4.79,11.02
29.619147062301636,-10.99,1.8,5.23,12.3
29.62285304069519,-10.39,0.32,5.81,11.9
29.634909868240356,-6.74,1.39,7.93,10.49
29.643308877944946,0.09,3.2,2.49,4.05
29.653313875198364,9.34,1.04,-2.1,9.62
29.682010889053345,10.86,-2.71,0.75,11.21
29.68418598175049,0.21,-2.22,2.92,3.67
29.685317039489746,-6.52,-3.04,3.83,8.14
29.6930091381073,-9.09,-5.69,3.25,11.2
29.703337907791138,-10.72,-6.97,0.68,12.8
29.713767051696777,-10.46,-5.64,-1.52,11.98
29.724053144454956,-7.06,-3.86,-1.62,8.2
29.734041929244995,-4.44,-3.27,-0.48,5.53
29.743927001953125,-3.16,-3.7,0.32,4.87
29.754399061203003,-2.49,-4.61,0.69,5.28
29.784580945968628,-2.41,-5.32,0.46,5.85
29.786828994750977,-2.9,-5.6,0.26,6.31
29.788511991500854,-3.28,-5.33,0.08,6.25
29.805630922317505,-3.49,-4.75,-0.08,5.89
29.808001041412354,-3.71,-3.82,-0.3,5.33
29.8183171749115,-3.95,-2.95,-0.45,4.95
29.824174165725708,-3.79,-2.33,-0.21,4.45
29.834635972976685,-2.95,-1.89,0.51,3.54
29.84472393989563,-1.89,-1.29,1.01,2.5
29.85511612892151,-0.88,-0.24,0.88,1.26
29.885436058044434,0.19,1.35,0.53,1.46
29.888240098953247,1.42,3.2,-0.26,3.51
29.890627145767212,2.71,5.12,-0.67,5.83
29.905399084091187,3.5,7.11,-0.65,7.95
29.907857179641724,3.93,8.74,-0.31,9.58
29.918955087661743,4.54,10.77,0.49,11.69
29.92529296875,6.0,12.44,1.43,13.88
29.935721158981323,7.64,12.62,1.68,14.84
29.944995164871216,8.17,11.21,1.56,13.95
29.955121994018555,7.24,9.24,1.92,11.89
29.982367038726807,6.48,6.68,0.31,9.31
29.984562158584595,8.11,4.51,-4.11,10.14
29.98573613166809,12.15,2.37,-4.26,13.09
30.00554919242859,15.06,1.73,-3.0,15.45
30.00789713859558,15.68,1.6,-4.75,16.46
30.018571138381958,17.15,1.05,-7.01,18.55
30.025945901870728,19.69,1.99,-7.77,21.26
30.035817861557007,17.91,3.85,-5.57,19.14
30.045735120773315,13.28,6.05,-3.97,15.12
30.056318998336792,4.26,6.87,-6.18,10.17
30.08681607246399,-10.54,12.26,-2.04,16.29
30.08924412727356,-19.14,20.93,3.95,28.63
30.09094786643982,-1.95,9.29,1.53,9.61
30.10397696495056,11.05,-1.7,2.23,11.4
30.105730056762695,10.45,-0.89,0.07,10.48
30.11897587776184,9.92,-0.49,3.29,10.46
30.126275062561035,12.86,-3.67,2.98,13.7
30.136275053024292,9.8,-1.45,-1.39,10.0
30.146213054656982,2.88,0.38,0.5,2.94
30.15670895576477,0.19,1.28,-1.16,1.73
