time,ax,ay,az,atotal
0.009800910949707031,0.14,0.08,0.3,0.34
0.014371871948242188,0.12,0.07,0.36,0.38
0.024460792541503906,0.07,0.04,0.25,0.26
0.03403806686401367,0.0,-0.02,0.13,0.13
0.04439878463745117,-0.07,-0.07,0.14,0.17
0.0544588565826416,-0.13,-0.11,0.21,0.27
0.06428885459899902,-0.17,-0.09,0.22,0.29
0.07507085800170898,-0.18,-0.02,0.17,0.24
0.08460474014282227,-0.15,0.06,0.12,0.2
0.09480094909667969,-0.13,0.09,0.05,0.16
0.10474491119384766,-0.1,0.08,0.0,0.12
0.11442804336547852,-0.07,0.06,-0.04,0.1
0.12482595443725586,-0.04,0.03,-0.05,0.07
0.13468694686889648,-0.02,-0.01,0.0,0.02
0.1447310447692871,-0.01,-0.04,0.04,0.05
0.15629792213439941,0.0,-0.05,0.08,0.09
0.16588306427001953,0.0,-0.05,0.09,0.1
0.17590785026550293,0.0,-0.03,0.09,0.09
0.18587994575500488,0.0,0.0,0.09,0.09
0.19601202011108398,0.01,0.01,0.11,0.11
0.2062697410583496,0.02,0.0,0.14,0.14
0.21531987190246582,0.04,-0.01,0.16,0.16
0.2254328727722168,0.01,-0.04,0.18,0.18
0.23539304733276367,-0.01,-0.04,0.21,0.21
0.2453017234802246,-0.03,-0.05,0.22,0.22
0.2558097839355469,-0.07,-0.02,0.22,0.23
0.26556396484375,-0.04,-0.01,0.19,0.19
0.27570199966430664,-0.03,0.0,0.18,0.18
0.28568506240844727,-0.03,0.0,0.2,0.2
0.29595184326171875,-0.02,-0.01,0.18,0.18
0.3072168827056885,-0.02,0.0,0.1,0.1
0.3173959255218506,-0.02,0.03,0.02,0.04
0.32703685760498047,-0.03,0.04,0.01,0.05
0.33696699142456055,-0.03,0.04,0.05,0.07
0.34687376022338867,-0.02,0.03,0.11,0.11
0.3571019172668457,0.01,0.01,0.13,0.13
0.3673398494720459,0.04,0.01,0.15,0.15
0.3772609233856201,0.07,0.01,0.19,0.2
0.3871889114379883,0.09,0.0,0.22,0.23
0.3972048759460449,0.13,0.01,0.24,0.27
0.40689802169799805,0.17,0.06,0.26,0.31
0.4180638790130615,0.2,0.1,0.16,0.27
0.4274909496307373,0.29,0.06,0.02,0.29
0.43785691261291504,0.37,0.07,0.08,0.38
0.4477057456970215,0.33,0.13,0.18,0.39
0.4576609134674072,0.31,0.2,0.13,0.39
0.4679539203643799,0.31,0.24,0.03,0.39
0.4778299331665039,0.23,0.2,-0.06,0.31
0.48778390884399414,0.07,0.12,-0.11,0.17
0.4978179931640625,-0.11,0.02,-0.07,0.13
0.5080938339233398,-0.21,-0.07,0.0,0.22
0.5185048580169678,-0.24,-0.11,0.06,0.27
0.52805495262146,-0.22,-0.13,0.11,0.27
0.5379977226257324,-0.18,-0.14,0.18,0.29
0.5480947494506836,-0.1,-0.17,0.23,0.3
0.5582208633422852,0.01,-0.2,0.29,0.35
0.5687417984008789,0.1,-0.17,0.32,0.37
0.5782990455627441,0.12,-0.08,0.29,0.32
0.5884280204772949,0.12,-0.01,0.26,0.28
0.5983929634094238,0.1,0.01,0.27,0.28
0.6086230278015137,0.07,0.0,0.3,0.3
0.6188549995422363,0.0,-0.01,0.28,0.28
0.628605842590332,-0.05,0.01,0.23,0.23
0.638725757598877,-0.06,0.04,0.13,0.14
0.6486308574676514,-0.07,0.07,0.07,0.12
0.6587610244750977,-0.12,0.09,0.01,0.15
0.6689538955688477,-0.17,0.12,0.02,0.2
0.6788759231567383,-0.15,0.11,0.05,0.19
0.689072847366333,-0.12,0.08,0.09,0.17
0.6991488933563232,-0.1,0.07,0.1,0.15
0.7091507911682129,-0.07,0.06,0.09,0.12
0.7191288471221924,-0.05,0.05,0.08,0.1
0.7293248176574707,-0.02,0.04,0.06,0.07
0.7393407821655273,0.0,0.04,0.05,0.06
0.7492709159851074,0.02,0.05,0.03,0.06
0.759483814239502,0.03,0.04,0.01,0.05
0.7698628902435303,0.04,0.02,0.05,0.06
0.7799787521362305,0.02,0.0,0.1,0.1
0.7897729873657227,-0.02,-0.02,0.12,0.12
0.7996840476989746,-0.04,-0.04,0.13,0.14
0.8098907470703125,0.0,-0.03,0.12,0.12
0.8200008869171143,0.06,-0.02,0.09,0.11
0.8302288055419922,0.09,-0.01,0.08,0.12
0.8394417762756348,0.06,-0.02,0.09,0.11
0.849233865737915,0.02,-0.03,0.09,0.09
0.8592338562011719,-0.03,-0.07,0.08,0.11
0.8692219257354736,-0.07,-0.1,0.08,0.14
0.8796257972717285,-0.06,-0.08,-0.44,0.45
0.8905420303344727,0.03,-0.01,-0.18,0.18
0.9007439613342285,0.11,-0.02,0.32,0.33
0.9105379581451416,0.01,-0.02,0.76,0.76
0.9206027984619141,0.06,-0.03,0.75,0.75
0.9310460090637207,0.09,-0.06,0.5,0.51
0.9407978057861328,0.06,-0.04,0.31,0.31
0.9504899978637695,0.07,0.0,0.24,0.25
0.9725918769836426,0.13,0.02,0.3,0.32
0.9734148979187012,0.17,0.04,0.43,0.46
0.9808669090270996,0.12,0.09,0.52,0.54
0.9904270172119141,0.04,0.09,0.41,0.42
1.0002007484436035,-0.02,0.05,0.19,0.19
1.0112159252166748,-0.04,0.01,0.0,0.04
1.0205879211425781,0.0,-0.01,-0.16,0.16
1.0309357643127441,-0.02,0.02,-0.26,0.26
1.0414447784423828,-0.01,0.05,-0.3,0.3
1.051365852355957,0.0,0.09,-0.27,0.28
1.0613250732421875,0.02,0.12,-0.23,0.26
1.0713038444519043,0.01,0.09,-0.18,0.2
1.0814528465270996,-0.01,0.03,-0.14,0.14
1.091506004333496,-0.05,-0.01,-0.12,0.13
1.1014389991760254,-0.06,-0.08,-0.15,0.18
1.1113338470458984,-0.08,-0.11,-0.12,0.18
1.1216020584106445,-0.15,-0.06,-0.1,0.19
1.1315429210662842,-0.17,-0.05,-0.12,0.21
1.1420118808746338,-0.14,-0.08,-0.05,0.16
1.1520090103149414,-0.14,-0.07,0.08,0.17
1.1616458892822266,-0.14,-0.04,0.16,0.21
1.171888828277588,-0.11,-0.04,0.12,0.16
1.181879997253418,-0.05,-0.08,0.13,0.16
1.1925458908081055,0.01,-0.08,0.22,0.23
1.202096939086914,0.01,-0.01,0.31,0.31
1.2120468616485596,0.03,0.03,0.28,0.28
1.2222869396209717,0.02,0.05,0.2,0.2
1.2314989566802979,-0.01,0.02,0.1,0.1
1.2418229579925537,-0.09,0.04,0.02,0.1
1.2512288093566895,-0.16,0.07,-0.1,0.2
1.2614550590515137,-0.19,0.05,-0.19,0.27
1.271554946899414,-0.21,0.02,-0.15,0.25
1.281430721282959,-0.19,-0.04,0.02,0.19
1.2916679382324219,-0.14,-0.08,0.23,0.28
1.3015339374542236,-0.08,-0.08,0.42,0.43
1.3116579055786133,-0.04,-0.07,0.45,0.45
1.3217377662658691,-0.01,-0.05,0.34,0.34
1.331686019897461,0.01,-0.04,0.19,0.19
1.3427929878234863,0.01,0.0,0.1,0.1
1.3521537780761719,0.0,0.01,0.02,0.02
1.3630468845367432,0.03,0.03,-0.02,0.04
1.3730108737945557,0.06,0.04,0.04,0.08
1.3831658363342285,0.03,0.1,0.11,0.15
1.3921380043029785,0.05,0.11,0.11,0.16
1.4034709930419922,0.08,0.09,0.1,0.15
1.4133567810058594,0.09,0.09,0.13,0.18
1.4230809211730957,0.14,0.1,0.14,0.22
1.4334759712219238,0.18,0.11,0.13,0.24
1.4433648586273193,0.15,0.08,0.15,0.22
1.453420877456665,0.13,0.07,0.21,0.25
1.4640908241271973,0.1,0.03,0.25,0.27
1.4735939502716064,0.07,0.01,0.27,0.27
1.4837579727172852,0.06,0.03,0.26,0.26
1.4937610626220703,0.09,0.06,0.21,0.23
1.5042009353637695,0.13,0.07,0.21,0.25
1.5138969421386719,0.14,0.05,0.29,0.32
1.523871898651123,0.12,0.05,0.35,0.37
1.5340499877929688,0.05,0.05,0.32,0.32
1.5439579486846924,-0.04,0.02,0.22,0.22
1.5545058250427246,-0.08,0.03,0.14,0.16
1.5641779899597168,-0.08,0.03,0.15,0.17
1.5742578506469727,-0.05,0.04,0.21,0.21
1.5844318866729736,0.0,0.06,0.23,0.23
1.5944218635559082,0.04,0.08,0.19,0.21
1.6045129299163818,0.05,0.08,0.12,0.15
1.614494800567627,0.06,0.08,0.11,0.14
1.6245338916778564,0.07,0.08,0.13,0.16
1.634753942489624,0.07,0.05,0.14,0.16
1.6449298858642578,0.03,0.04,0.15,0.15
1.6546659469604492,0.0,0.01,0.15,0.15
1.6652870178222656,0.04,-0.02,0.14,0.14
1.6749987602233887,0.02,-0.01,0.09,0.09
1.685265064239502,-0.02,0.0,-0.04,0.04
1.6952710151672363,-0.06,0.0,-0.18,0.18
1.7048768997192383,-0.14,0.01,-0.27,0.3
1.7155709266662598,-0.14,0.03,-0.24,0.27
1.7251029014587402,-0.06,0.03,-0.08,0.1
1.735243797302246,0.01,0.04,0.08,0.09
1.745297908782959,0.02,0.04,0.16,0.16
1.7553539276123047,0.01,0.02,0.14,0.14
1.7657649517059326,0.01,0.01,0.09,0.09
1.7755417823791504,-0.01,0.03,0.07,0.07
1.7857060432434082,0.02,0.01,0.16,0.16
1.795778751373291,0.06,-0.01,0.32,0.32
1.8056349754333496,0.07,-0.01,0.38,0.38
1.816422939300537,0.06,0.0,0.32,0.32
1.8259179592132568,0.01,0.0,0.18,0.18
1.8353779315948486,0.0,0.02,0.07,0.07
1.8451437950134277,0.03,0.0,0.04,0.05
1.8551230430603027,0.04,0.0,0.11,0.11
1.8650338649749756,0.0,-0.01,0.16,0.16
1.8753080368041992,-0.08,-0.03,0.13,0.15
1.8852519989013672,-0.1,-0.06,0.05,0.12
1.896333932876587,-0.1,-0.06,0.05,0.12
1.9062068462371826,-0.09,-0.04,0.1,0.14
1.9165139198303223,-0.14,-0.04,0.07,0.16
1.926835060119629,-0.29,-0.04,-0.05,0.29
1.936478853225708,-0.4,-0.08,-0.19,0.45
1.9460668563842773,-0.46,-0.1,-0.3,0.55
1.956453800201416,-0.5,-0.14,-0.37,0.63
1.9665429592132568,-0.49,-0.13,-0.37,0.62
1.9767138957977295,-0.44,-0.11,-0.29,0.53
1.9866828918457031,-0.28,-0.11,-0.15,0.33
1.996737003326416,-0.13,-0.08,-0.01,0.15
2.0068209171295166,-0.05,-0.05,0.05,0.08
2.0161728858947754,0.09,0.01,0.09,0.12
2.0263428688049316,0.22,0.06,0.17,0.28
2.036083936691284,0.24,0.14,0.25,0.37
2.046273946762085,0.26,0.19,0.25,0.4
2.056283950805664,0.26,0.19,0.19,0.37
2.0663869380950928,0.21,0.17,0.1,0.28
2.0767908096313477,0.19,0.16,0.1,0.26
2.0864739418029785,0.19,0.14,0.16,0.28
2.0964579582214355,0.2,0.1,0.24,0.32
2.1064698696136475,0.21,0.08,0.3,0.37
2.116734027862549,0.23,0.07,0.3,0.38
2.1269588470458984,0.21,0.08,0.32,0.39
2.1366689205169678,0.24,0.08,0.35,0.43
2.146695852279663,0.22,0.1,0.36,0.43
2.1569080352783203,0.22,0.07,0.38,0.44
2.1671528816223145,0.18,0.05,0.41,0.45
2.1771068572998047,0.11,0.06,0.38,0.4
2.187408924102783,0.06,0.06,0.32,0.33
2.197183847427368,0.05,0.07,0.24,0.25
2.2073049545288086,0.02,0.1,0.14,0.17
2.2173988819122314,-0.02,0.1,0.05,0.11
2.2273669242858887,0.01,0.08,0.02,0.08
2.2376859188079834,0.0,0.03,0.06,0.06
2.2474727630615234,-0.06,0.0,0.08,0.1
2.257558822631836,-0.09,-0.01,0.06,0.1
2.2677769660949707,-0.11,0.03,0.02,0.11
2.277647018432617,-0.11,0.05,0.04,0.12
2.288099765777588,-0.1,0.05,0.09,0.14
2.297855854034424,-0.05,0.0,0.14,0.14
2.308039903640747,0.0,-0.04,0.14,0.14
2.318154811859131,-0.01,-0.03,0.06,0.06
2.328084945678711,0.0,-0.02,0.03,0.03
2.3384289741516113,0.02,0.01,0.04,0.04
2.348353862762451,0.04,0.01,0.09,0.09
2.358574867248535,0.03,0.01,0.13,0.13
2.3688409328460693,0.03,0.01,0.14,0.14
2.3786778450012207,0.05,0.02,0.16,0.16
2.3889498710632324,0.07,0.04,0.17,0.18
2.3985137939453125,0.1,0.03,0.15,0.18
2.408655881881714,0.11,0.03,0.14,0.18
2.41904878616333,0.08,0.03,0.1,0.13
2.4287610054016113,0.08,0.02,0.04,0.09
2.4388339519500732,0.08,0.03,0.03,0.09
2.4489517211914062,0.06,0.05,0.06,0.09
2.4589548110961914,0.05,0.05,0.1,0.12
2.4692678451538086,0.04,0.04,0.11,0.12
2.4795329570770264,0.0,0.02,0.06,0.06
2.489175796508789,-0.03,-0.01,0.03,0.04
2.499516010284424,-0.01,-0.01,0.02,0.02
2.509206771850586,0.01,-0.02,0.04,0.04
2.5193848609924316,0.02,-0.02,0.08,0.08
2.529496908187866,0.01,-0.03,0.1,0.1
2.5394158363342285,0.02,-0.04,0.12,0.12
2.549898862838745,0.01,-0.04,0.11,0.11
2.5596580505371094,0.02,-0.04,0.11,0.11
2.569598913192749,0.01,-0.02,0.09,0.09
2.5797510147094727,0.0,-0.01,0.0,0.01
2.589890956878662,0.05,-0.03,-0.02,0.06
2.5999128818511963,0.07,-0.02,0.04,0.08
2.6098508834838867,0.05,-0.02,0.05,0.07
2.61989688873291,0.06,-0.04,0.07,0.1
2.629970073699951,0.09,-0.03,0.16,0.18
2.640130043029785,0.08,-0.01,0.21,0.22
2.650448799133301,0.05,0.01,0.15,0.15
2.6602089405059814,0.06,-0.01,0.08,0.1
2.6702327728271484,0.1,-0.01,0.12,0.15
2.680292844772339,0.12,-0.01,0.22,0.25
2.690316915512085,0.14,0.01,0.27,0.3
2.7007999420166016,0.13,0.01,0.27,0.29
2.710442066192627,0.1,0.03,0.23,0.25
2.720612049102783,0.1,0.06,0.17,0.2
2.736176013946533,0.13,0.07,0.12,0.19
2.740729808807373,0.12,0.1,0.03,0.15
2.7511940002441406,0.11,0.12,-0.04,0.16
2.760701894760132,0.1,0.09,-0.06,0.14
2.770768880844116,0.05,0.07,0.01,0.08
2.780963897705078,0.01,0.07,0.09,0.11
2.7908918857574463,-0.03,0.09,0.14,0.16
2.8014209270477295,-0.07,0.06,0.11,0.14
2.8117799758911133,-0.08,0.02,0.05,0.09
2.82179594039917,-0.1,-0.01,0.04,0.1
2.831465721130371,-0.14,-0.01,0.06,0.15
2.841235876083374,-0.19,0.01,0.08,0.2
2.851377010345459,-0.18,0.0,0.06,0.18
2.860975742340088,-0.12,-0.01,0.04,0.12
2.8712639808654785,-0.08,-0.02,0.02,0.08
2.8812689781188965,-0.06,-0.01,0.01,0.06
2.89228892326355,-0.03,0.01,0.02,0.03
2.902641773223877,0.0,0.01,0.06,0.06
2.9125208854675293,0.04,0.0,0.1,0.1
2.9224910736083984,0.06,0.01,0.15,0.16
2.9325058460235596,0.06,0.01,0.18,0.19
2.941701889038086,0.07,-0.01,0.21,0.22
2.953065872192383,0.11,-0.01,0.2,0.22
2.9619438648223877,0.14,0.0,0.26,0.29
2.9728238582611084,0.16,0.01,0.28,0.32
2.982886791229248,0.18,0.02,0.26,0.31
2.9929559230804443,0.13,0.03,0.22,0.25
3.003058910369873,0.12,0.02,0.19,0.22
3.0130698680877686,0.11,0.04,0.19,0.22
3.023036003112793,0.12,0.08,0.2,0.24
3.0331459045410156,0.12,0.1,0.19,0.24
3.043379783630371,0.08,0.11,0.14,0.19
3.053682804107666,0.06,0.06,0.05,0.09
3.063551902770996,0.04,0.03,0.03,0.05
3.073601722717285,0.03,0.03,0.05,0.06
3.083508014678955,0.03,0.01,0.05,0.05
3.0935559272766113,0.04,0.0,0.03,0.05
3.103653907775879,0.04,-0.01,0.01,0.04
3.1139469146728516,0.03,0.0,-0.01,0.03
3.1236510276794434,0.02,0.01,-0.04,0.04
3.133784770965576,0.03,0.0,-0.08,0.08
3.143796920776367,0.06,0.0,-0.09,0.1
3.1538968086242676,0.06,-0.01,-0.06,0.08
3.16422176361084,0.04,-0.01,0.03,0.05
3.1739399433135986,0.02,0.01,0.09,0.09
3.1840288639068604,0.0,0.04,0.11,0.11
3.1941428184509277,-0.03,0.04,0.12,0.13
3.204235076904297,-0.04,0.04,0.13,0.14
3.214667797088623,-0.05,0.05,0.15,0.16
3.223646879196167,-0.05,0.04,0.16,0.17
3.234102725982666,-0.05,0.02,0.14,0.15
3.243898868560791,-0.03,0.02,0.1,0.1
3.2539000511169434,0.0,0.04,-0.27,0.27
3.2639389038085938,0.13,0.05,-0.51,0.52
3.2740859985351562,0.24,0.07,-0.04,0.25
3.283918857574463,0.3,0.06,0.15,0.34
3.2958478927612305,0.35,0.04,0.44,0.56
3.3043570518493652,0.28,0.03,0.6,0.66
3.3143820762634277,0.26,0.0,0.64,0.69
3.324862003326416,0.27,-0.01,0.74,0.78
3.334728956222534,0.11,0.04,0.84,0.84
3.3549089431762695,0.05,-0.01,0.63,0.63
3.3617279529571533,0.15,-0.06,0.16,0.22
3.383837938308716,0.15,0.0,-0.03,0.15
3.3863558769226074,0.1,0.05,-0.01,0.11
3.388105869293213,0.1,0.07,0.01,0.12
3.394882917404175,0.07,0.06,-0.03,0.09
3.406620979309082,0.05,0.06,-0.06,0.09
3.415083885192871,0.01,0.05,-0.02,0.05
3.4257359504699707,-0.03,0.02,-0.02,0.04
3.435615062713623,-0.06,0.02,-0.07,0.09
3.4454269409179688,-0.09,0.02,-0.12,0.15
3.4559168815612793,-0.14,0.02,-0.18,0.22
3.4850399494171143,-0.12,0.01,-0.18,0.21
3.489717960357666,-0.11,0.0,-0.15,0.18
3.492661952972412,-0.09,0.01,-0.14,0.16
3.4950337409973145,-0.07,0.02,-0.22,0.23
3.5054450035095215,-0.03,0.0,-0.27,0.27
3.515279769897461,0.0,0.01,-0.28,0.28
3.526183843612671,0.05,0.07,-0.26,0.27
3.536323070526123,0.15,0.09,-0.23,0.28
3.5463337898254395,0.29,0.1,-0.09,0.31
3.5560240745544434,0.29,0.14,0.07,0.32
3.584472894668579,0.25,0.12,0.2,0.34
3.587723731994629,0.27,0.09,0.24,0.37
3.590669870376587,0.21,0.11,0.2,0.31
3.5958800315856934,0.17,0.12,0.03,0.21
3.6063199043273926,0.32,0.19,-0.07,0.37
3.6162469387054443,0.41,0.27,-0.13,0.5
3.6266849040985107,-0.05,0.3,0.22,0.37
3.6368448734283447,-0.18,0.43,-0.12,0.48
3.646843910217285,0.17,0.46,-0.23,0.54
3.657244920730591,0.2,0.16,-0.02,0.25
3.6854357719421387,0.6,0.23,-0.46,0.79
3.688878059387207,0.67,0.36,-0.71,1.04
3.6914639472961426,0.4,0.36,-0.5,0.73
3.6964478492736816,0.37,0.08,-0.59,0.7
3.7071127891540527,0.16,-0.11,-0.27,0.33
3.7169668674468994,-0.07,-0.74,-0.09,0.74
3.727294921875,-0.34,-2.39,0.16,2.41
3.7379508018493652,0.32,-2.06,1.98,2.87
3.748112916946411,1.05,0.34,1.65,1.98
3.7580008506774902,-0.08,-0.19,0.1,0.22
3.7865028381347656,0.55,-0.48,-0.51,0.89
3.789414882659912,0.89,-0.58,-0.81,1.33
3.7914679050445557,0.61,-0.73,-0.65,1.15
3.7969889640808105,0.63,-1.01,-0.31,1.23
3.8072738647460938,0.77,-1.23,-0.05,1.45
3.8176748752593994,1.04,-1.18,0.16,1.58
3.8278098106384277,1.21,-1.0,0.19,1.58
3.8388047218322754,1.36,-0.96,0.13,1.66
3.850389003753662,1.35,-1.26,0.26,1.86
3.858168840408325,1.47,-1.55,0.3,2.15
3.8837738037109375,1.67,-1.53,0.21,2.27
3.8859519958496094,1.36,-1.46,0.38,2.03
3.887657880783081,0.94,-1.34,0.6,1.74
3.897636890411377,0.99,-0.97,0.59,1.5
3.908266067504883,0.7,-0.07,0.53,0.88
3.9182138442993164,-0.06,1.25,0.74,1.45
3.9283599853515625,-0.19,1.92,-0.16,1.93
3.9386839866638184,0.33,1.61,-1.97,2.56
3.949220895767212,0.39,1.06,-3.57,3.74
3.958911895751953,0.42,0.64,-4.3,4.36
3.9873757362365723,0.51,0.52,-4.91,4.96
3.9907050132751465,0.31,0.61,-5.75,5.79
3.992785930633545,0.03,0.94,-6.4,6.46
3.9984569549560547,-0.28,1.29,-6.25,6.38
4.008691787719727,-0.48,1.14,-5.19,5.33
4.01889705657959,0.02,0.71,-4.42,4.47
4.029205799102783,0.94,0.27,-2.76,2.92
4.039092063903809,1.74,0.13,-0.88,1.95
4.049482822418213,1.82,0.2,0.81,2.0
4.059398889541626,1.39,0.2,-0.79,1.61
4.087868928909302,1.26,0.13,-3.01,3.26
4.090695858001709,0.84,-0.21,-2.53,2.67
4.092745780944824,-0.07,-0.73,-1.53,1.69
4.1107518672943115,-0.93,-1.05,-2.55,2.91
4.113157749176025,-1.76,-1.38,-2.99,3.73
4.123586893081665,-2.39,-2.07,-2.65,4.12
4.1293418407440186,-2.55,-2.98,-2.81,4.82
4.139814853668213,-2.49,-3.73,-3.33,5.58
4.149704933166504,-2.46,-4.23,-3.58,6.06
4.160225868225098,-2.23,-4.44,-3.83,6.27
4.188889980316162,-1.78,-4.31,-4.09,6.2
4.191802978515625,-1.22,-4.01,-4.66,6.26
4.193883895874023,-0.46,-3.61,-5.29,6.42
4.210875034332275,0.07,-3.49,-5.41,6.43
4.213239908218384,0.27,-3.49,-4.81,5.94
4.223036766052246,0.67,-3.95,-2.57,4.75
4.2300519943237305,0.51,-4.52,-0.18,4.55
4.240132808685303,0.57,-4.55,0.76,4.64
4.250331878662109,1.33,-4.36,1.01,4.66
4.260422945022583,1.74,-4.34,0.45,4.69
4.287106037139893,2.47,-3.59,0.39,4.37
4.289129734039307,2.82,-2.22,0.86,3.69
4.291087865829468,2.55,-1.09,1.22,3.02
4.30034875869751,1.93,-0.85,1.71,2.71
4.3107147216796875,1.81,-1.51,2.26,3.26
4.32073974609375,2.01,-2.28,2.13,3.71
4.330769062042236,2.24,-2.57,2.5,4.22
4.34092378616333,2.36,-2.54,3.18,4.7
4.3510260581970215,2.85,-2.51,3.86,5.41
4.361584901809692,3.35,-2.39,4.24,5.9
4.390336990356445,3.56,-2.07,4.33,5.97
4.393761873245239,3.63,-1.65,4.23,5.81
4.396127939224243,3.68,-1.35,4.04,5.62
4.412201881408691,3.93,-1.29,3.89,5.67
4.414613723754883,3.98,-1.13,3.66,5.52
4.423717975616455,3.9,-0.86,3.5,5.31
4.431169033050537,3.98,-0.42,3.54,5.34
4.441524028778076,4.37,-0.1,3.31,5.48
4.451742887496948,4.82,-0.04,2.81,5.57
4.462717056274414,4.77,-0.03,2.42,5.34
4.489364862442017,4.3,0.01,2.38,4.91
4.492210865020752,3.37,0.08,2.53,4.21
4.494578838348389,2.5,0.36,2.63,3.64
4.514317035675049,2.11,0.69,2.58,3.4
4.516742944717407,1.94,0.91,2.37,3.19
4.5233519077301025,1.89,1.12,2.0,2.97
4.531764030456543,1.81,1.29,1.35,2.6
4.5419440269470215,1.71,1.5,0.97,2.47
4.5521159172058105,1.49,1.57,0.49,2.21
4.562150001525879,1.07,1.55,0.39,1.92
4.588597774505615,1.21,2.01,0.62,2.42
4.590728759765625,1.58,2.46,1.03,3.09
4.5923967361450195,2.39,2.61,1.5,3.84
4.611279010772705,2.79,2.94,1.99,4.51
4.613370895385742,2.88,3.05,2.43,4.84
4.624287843704224,2.63,2.83,2.62,4.66
4.632534027099609,2.1,2.69,2.74,4.37
4.642654895782471,1.34,2.42,2.74,3.89
4.653400897979736,0.45,2.34,3.06,3.87
4.662985801696777,0.08,2.34,2.24,3.24
4.691436767578125,0.16,2.03,1.66,2.62
4.694135904312134,0.12,1.67,1.14,2.02
4.6958208084106445,0.1,1.43,0.88,1.68
4.710783004760742,-0.18,1.53,0.84,1.75
4.713171005249023,0.01,1.53,0.83,1.74
4.72501802444458,0.5,1.19,0.63,1.43
4.733219861984253,0.63,1.14,0.36,1.35
4.743261814117432,0.46,1.31,0.08,1.39
4.753716945648193,0.48,1.26,-0.22,1.36
4.763787746429443,0.33,1.16,-0.27,1.23
4.792256832122803,0.11,1.1,-0.1,1.11
4.795094013214111,-0.18,1.16,-0.13,1.18
4.797131061553955,-0.13,0.97,-0.11,0.98
4.810940742492676,-0.23,0.79,0.01,0.82
4.813432931900024,-0.31,0.73,0.0,0.79
4.8251848220825195,-0.38,0.69,0.07,0.79
4.833999872207642,-0.31,0.65,0.15,0.73
4.844388008117676,-0.42,0.7,0.21,0.84
4.854340076446533,-0.52,0.75,0.2,0.93
4.864381790161133,-0.36,0.74,0.3,0.87
4.891901969909668,-0.4,0.74,0.32,0.9
4.894579887390137,-0.4,0.8,0.34,0.95
4.8968048095703125,-0.31,1.01,0.46,1.15
4.909668922424316,0.23,0.84,0.47,0.98
4.91406774520874,-0.02,0.64,0.53,0.83
4.924638748168945,0.01,1.03,0.81,1.31
4.934536933898926,0.12,0.67,0.74,1.0
4.944459915161133,0.09,0.21,0.31,0.38
4.954938888549805,-0.16,0.53,0.02,0.55
4.964914798736572,-0.05,0.66,-0.04,0.66
4.991724967956543,0.05,0.78,-0.08,0.78
4.994585037231445,0.4,0.81,-0.09,0.9
4.996703863143921,0.84,0.75,0.04,1.12
5.01006293296814,0.89,0.73,0.16,1.16
5.0149760246276855,0.91,0.65,0.21,1.13
5.0254998207092285,0.99,0.58,0.39,1.21
5.03505277633667,0.93,0.67,0.61,1.29
5.045447826385498,1.08,0.6,0.69,1.41
5.055837869644165,1.26,0.4,0.66,1.47
5.065526008605957,1.16,0.23,0.52,1.29
5.0946269035339355,0.79,0.03,0.23,0.82
5.0975189208984375,-0.01,-0.1,-0.02,0.1
5.099812984466553,-1.03,0.04,0.06,1.03
5.1100568771362305,-1.43,0.04,0.06,1.43
5.115314960479736,-1.18,-0.07,0.05,1.18
5.125617980957031,-0.87,-0.11,-0.1,0.88
5.136113882064819,-0.44,-0.23,-0.25,0.55
5.146158933639526,-0.12,-0.29,-0.32,0.44
5.156623840332031,-0.02,-0.28,-0.24,0.36
5.166424751281738,0.0,-0.16,-0.05,0.16
5.193665981292725,0.13,-0.13,0.25,0.31
5.196704864501953,0.38,-0.13,0.54,0.67
5.198891878128052,0.56,-0.09,0.76,0.94
5.210765838623047,0.63,0.0,0.84,1.05
5.2158379554748535,0.5,-0.04,0.71,0.86
5.226247787475586,0.01,-0.09,0.39,0.4
5.236457824707031,-0.63,0.01,0.21,0.66
5.246340751647949,-1.14,0.19,0.07,1.15
5.256807804107666,-1.34,0.26,-0.23,1.38
5.26672887802124,-1.19,0.24,-0.42,1.28
5.294348955154419,-0.85,0.17,-0.47,0.98
5.297287940979004,-0.57,0.03,-0.48,0.74
5.299007892608643,-0.52,-0.24,-0.48,0.74
5.309576034545898,-0.87,-0.55,-0.32,1.07
5.316486835479736,-0.48,-0.05,-0.13,0.49
5.326923847198486,-0.4,0.13,-0.01,0.42
5.337193012237549,-0.46,0.0,-0.04,0.46
5.34755277633667,-0.2,0.3,0.06,0.36
5.357285022735596,-0.15,0.52,0.1,0.55
5.367435932159424,-0.07,0.7,0.11,0.71
5.39545202255249,0.12,0.77,0.11,0.78
5.398198843002319,0.11,0.8,0.08,0.81
5.400552749633789,-0.03,0.93,0.01,0.93
5.410354852676392,-0.16,0.98,0.03,0.99
5.417349815368652,-0.11,1.02,0.26,1.05
5.4275219440460205,0.36,0.9,0.55,1.11
5.437726974487305,1.1,0.65,0.93,1.58
5.448177814483643,1.87,0.54,1.4,2.39
5.458019733428955,2.58,0.62,1.77,3.18
5.46796989440918,2.99,0.84,2.03,3.71
5.497560024261475,2.86,1.27,2.15,3.79
5.500688076019287,2.32,1.73,2.12,3.58
5.5027759075164795,1.5,2.14,1.85,3.2
5.508843898773193,0.54,2.43,1.47,2.89
5.517667770385742,-0.34,2.61,1.22,2.9
5.528356075286865,-1.0,2.73,1.15,3.12
5.53817892074585,-1.35,2.77,1.17,3.29
5.548430919647217,-1.36,2.83,1.29,3.39
5.558452844619751,-1.16,2.93,1.42,3.45
5.568675994873047,-0.78,2.99,1.39,3.38
5.600502967834473,-0.34,3.05,1.24,3.3
5.6026387214660645,0.02,3.08,1.01,3.24
5.60427188873291,0.3,3.16,0.69,3.24
5.609076023101807,0.59,3.27,0.38,3.34
5.625015735626221,0.69,3.54,-0.01,3.6
5.628360748291016,0.79,3.95,-0.34,4.04
5.640008926391602,0.93,4.29,-0.56,4.42
5.648587942123413,1.16,4.56,-0.65,4.74
5.6590869426727295,1.43,4.63,-0.64,4.88
5.669251918792725,1.75,4.52,-0.48,4.87
5.698379039764404,2.13,4.31,-0.18,4.81
5.7009968757629395,2.36,4.03,0.13,4.67
5.703045845031738,2.43,3.72,0.48,4.46
5.708985805511475,2.23,3.43,0.83,4.17
5.718592882156372,1.91,3.15,1.11,3.84
5.729220867156982,1.8,2.94,1.3,3.68
5.739463806152344,1.84,2.73,1.38,3.56
5.749355792999268,1.95,2.62,1.49,3.58
5.760091781616211,1.94,2.68,1.34,3.56
5.770007848739624,1.96,2.58,1.2,3.45
5.798584938049316,2.03,2.47,1.14,3.39
5.800886869430542,1.99,2.47,1.04,3.33
5.802428722381592,1.87,2.38,0.98,3.18
5.809223890304565,1.87,2.27,0.97,3.09
5.819304943084717,1.99,2.11,0.89,3.03
5.829789876937866,2.2,1.89,0.76,2.99
5.840191841125488,2.37,1.59,0.66,2.92
5.850165843963623,2.33,1.33,0.53,2.73
5.860336780548096,2.08,1.25,0.39,2.45
5.871293067932129,1.89,1.28,0.38,2.31
5.8991289138793945,1.99,1.21,0.55,2.39
5.901681900024414,2.12,1.04,0.67,2.45
5.903390884399414,2.3,0.89,0.59,2.53
5.910038948059082,2.47,0.71,0.45,2.6
5.9199419021606445,2.62,0.51,0.27,2.68
5.930339813232422,2.7,0.27,0.07,2.71
5.940327882766724,2.58,0.04,-0.11,2.58
5.95075798034668,2.3,-0.06,-0.22,2.31
5.960660934448242,2.03,-0.2,-0.25,2.05
5.971827030181885,1.8,-0.47,-0.21,1.87
5.999323844909668,1.56,-0.84,-0.16,1.77
6.0022969245910645,1.27,-1.27,-0.08,1.79
6.004024982452393,0.89,-1.69,0.04,1.91
6.0103418827056885,0.48,-2.13,0.17,2.19
6.021452903747559,0.04,-2.56,0.18,2.56
6.030879020690918,-0.57,-2.82,0.06,2.87
6.041096925735474,-1.07,-3.04,0.02,3.22
6.05121374130249,-1.29,-3.5,0.01,3.73
6.061792850494385,-1.42,-4.04,-0.08,4.28
6.072230815887451,-1.59,-4.46,-0.22,4.74
6.100849866867065,-1.79,-4.73,-0.34,5.06
6.104365825653076,-1.96,-4.92,-0.37,5.3
6.106052875518799,-2.1,-5.06,-0.36,5.49
6.1109089851379395,-2.24,-5.14,-0.31,5.61
6.124797821044922,-2.34,-5.3,-0.25,5.79
6.131473064422607,-2.44,-5.49,-0.34,6.01
6.141696929931641,-2.62,-5.76,-0.64,6.36
6.151814937591553,-2.92,-6.02,-1.08,6.77
6.162149906158447,-3.32,-6.07,-1.55,7.09
6.172693729400635,-3.77,-6.04,-1.92,7.37
6.2011919021606445,-4.11,-6.17,-2.12,7.71
6.204308032989502,-4.21,-6.48,-2.16,8.02
6.207280874252319,-4.16,-6.94,-2.04,8.34
6.211497783660889,-4.14,-7.4,-1.8,8.66
6.225030899047852,-4.37,-7.51,-1.45,8.8
6.231950759887695,-4.79,-7.16,-0.99,8.67
6.242461919784546,-5.16,-6.51,-0.43,8.31
6.252444744110107,-5.28,-5.84,0.02,7.87
6.2625038623809814,-5.03,-5.26,0.19,7.28
6.273483753204346,-4.35,-4.94,0.08,6.58
6.301950931549072,-3.44,-4.9,-0.17,5.98
6.305665016174316,-2.56,-4.96,-0.45,5.59
6.308413982391357,-1.83,-5.06,-0.69,5.42
6.312131881713867,-1.14,-5.22,-0.9,5.41
6.322786808013916,-0.47,-5.41,-1.01,5.52
6.332545757293701,0.09,-5.51,-1.06,5.61
6.342859745025635,0.58,-5.59,-1.1,5.72
6.353082895278931,0.97,-5.6,-1.12,5.79
6.36301589012146,1.15,-5.5,-1.1,5.72
6.373653888702393,1.14,-5.27,-1.02,5.48
6.402214050292969,1.03,-4.94,-0.92,5.12
6.405631065368652,0.9,-4.59,-0.82,4.74
6.408046722412109,0.75,-4.24,-0.62,4.35
6.412688732147217,0.68,-3.91,-0.32,3.98
6.423388957977295,0.64,-3.52,-0.05,3.57
6.433800935745239,0.61,-3.08,0.22,3.14
6.4435930252075195,0.65,-2.66,0.51,2.78
6.453722953796387,0.71,-2.26,0.82,2.5
6.464139938354492,0.79,-1.87,1.0,2.26
6.474068880081177,0.95,-1.57,0.97,2.07
6.5042548179626465,1.19,-1.42,0.85,2.03
6.506374835968018,1.49,-1.33,0.75,2.13
6.508007049560547,1.82,-1.32,0.63,2.33
6.513303756713867,2.15,-1.34,0.51,2.58
6.523578882217407,2.37,-1.25,0.46,2.71
6.534276008605957,2.41,-1.05,0.63,2.7
6.545194864273071,2.36,-0.68,0.81,2.58
6.55511474609375,2.31,-0.1,0.86,2.46
6.564334869384766,2.48,0.36,0.86,2.64
6.574936866760254,2.84,0.72,0.44,2.96
6.6090428829193115,3.14,0.82,0.37,3.26
6.610887050628662,3.46,0.82,0.83,3.65
6.612298965454102,3.57,0.98,1.16,3.87
6.627683877944946,3.48,1.26,1.35,3.93
6.629381895065308,3.2,1.48,1.59,3.86
6.641982078552246,2.99,1.76,1.98,3.99
6.644635915756226,2.87,1.99,2.23,4.14
6.657542943954468,2.71,2.33,2.29,4.24
6.664628028869629,2.57,2.8,2.4,4.49
6.674813747406006,2.69,3.15,2.49,4.83
6.6996729373931885,3.03,3.4,2.54,5.21
6.701756954193115,3.46,3.63,2.64,5.66
6.7042317390441895,3.93,3.86,2.85,6.2
6.714537858963013,4.4,4.21,3.14,6.85
6.725368022918701,4.9,4.62,3.54,7.6
6.735147953033447,5.48,5.02,3.97,8.42
6.745281934738159,6.05,5.51,4.22,9.2
6.755325794219971,6.51,6.02,4.23,9.82
6.765730857849121,6.84,6.5,4.0,10.24
6.775835990905762,7.08,6.88,3.61,10.51
6.8050737380981445,7.22,7.12,3.15,10.61
6.8080878257751465,7.18,7.26,2.58,10.53
6.810229778289795,7.05,7.14,2.11,10.25
6.815086841583252,6.88,6.98,1.98,9.99
6.825239896774292,6.73,7.06,2.27,10.01
6.835777759552002,6.84,7.35,2.66,10.38
6.845691919326782,7.09,7.6,2.85,10.77
6.856191873550415,7.51,7.59,2.89,11.06
6.866136074066162,7.84,7.45,2.91,11.19
6.876591920852661,7.89,7.33,2.86,11.14
6.903844833374023,7.71,7.1,2.57,10.79
6.907159805297852,7.33,6.72,2.15,10.17
6.909886837005615,6.83,6.31,1.8,9.47
6.915663957595825,6.36,5.93,1.62,8.84
6.9260029792785645,6.02,5.54,1.58,8.33
6.936010837554932,5.77,5.17,1.55,7.9
6.946437835693359,5.56,4.75,1.55,7.47
6.957088947296143,5.36,4.31,1.56,7.05
6.9666008949279785,4.93,3.84,1.57,6.44
6.976820945739746,4.27,3.52,1.61,5.76
7.005244731903076,3.61,3.24,1.67,5.13
7.008470058441162,3.07,2.89,1.69,4.54
7.0109429359436035,2.62,2.53,1.71,4.02
7.016215801239014,2.31,2.2,1.66,3.59
7.026634931564331,2.12,1.84,1.63,3.24
7.036978721618652,2.14,1.4,1.59,3.01
7.047199726104736,2.33,0.85,1.47,2.88
7.057447910308838,2.48,0.28,1.37,2.84
7.067683935165405,2.31,0.13,1.62,2.82
7.07765007019043,2.19,0.08,1.41,2.6
7.107372760772705,2.39,-0.6,1.14,2.71
7.109644889831543,2.68,-1.14,1.29,3.18
7.111268997192383,2.81,-1.41,1.35,3.42
7.128967761993408,2.87,-1.65,1.32,3.56
7.131346940994263,3.22,-1.95,1.48,4.04
7.1424689292907715,3.54,-2.25,1.64,4.5
7.14764404296875,3.63,-2.5,1.74,4.73
7.158294916152954,3.68,-2.69,1.95,4.95
7.168195724487305,3.61,-2.81,2.25,5.09
7.178263902664185,3.48,-2.92,2.48,5.17
7.207070827484131,3.32,-3.07,2.57,5.2
7.209974765777588,3.27,-3.39,2.47,5.31
7.212206840515137,3.23,-3.93,2.13,5.51
7.2290849685668945,2.86,-4.43,1.69,5.53
7.231886863708496,2.23,-4.8,1.4,5.47
7.241797924041748,1.51,-5.09,1.28,5.46
7.248347759246826,0.77,-5.3,1.24,5.49
7.258899927139282,0.15,-5.44,1.29,5.59
7.26870584487915,-0.26,-5.64,1.27,5.78
7.278879880905151,-0.4,-5.92,0.97,6.01
7.307651996612549,-0.46,-6.19,0.58,6.23
7.310603857040405,-0.55,-6.43,0.38,6.46
7.312794923782349,-0.68,-6.65,0.18,6.68
7.329076766967773,-0.92,-6.81,-0.09,6.87
7.331545829772949,-1.29,-6.76,-0.33,6.88
7.342784881591797,-1.65,-6.63,-0.5,6.85
7.348907947540283,-1.93,-6.6,-0.62,6.9
7.35900092124939,-2.11,-6.65,-0.63,7.0
7.369537830352783,-2.2,-6.71,-0.58,7.08
7.379026889801025,-2.2,-6.81,-0.49,7.17
7.407083988189697,-1.83,-7.15,-0.44,7.39
7.4099650382995605,-1.25,-7.73,-0.49,7.84
7.411633014678955,-0.88,-8.21,-0.64,8.28
7.427985906600952,-0.94,-8.23,-0.83,8.32
7.430456876754761,-1.31,-7.97,-0.67,8.1
7.442728042602539,-1.75,-7.49,-0.37,7.7
7.449423789978027,-2.13,-7.08,-0.37,7.4
7.459887981414795,-2.05,-7.01,-0.44,7.31
7.470298767089844,-1.65,-7.19,-0.5,7.39
7.480116844177246,-1.3,-7.38,-0.56,7.51
7.5088279247283936,-1.05,-7.4,-0.52,7.49
7.5118408203125,-0.9,-7.27,-0.4,7.33
7.514163970947266,-0.91,-7.07,-0.34,7.13
7.528450965881348,-0.87,-6.9,-0.29,6.96
7.531020879745483,-0.77,-6.88,-0.33,6.93
7.5436320304870605,-0.69,-6.94,-0.53,6.99
7.550349950790405,-0.81,-6.93,-0.75,7.01
7.561152935028076,-1.09,-6.8,-0.91,6.94
7.571232795715332,-1.47,-6.62,-0.99,6.85
7.580615043640137,-1.86,-6.46,-1.01,6.79
7.608393907546997,-2.15,-6.35,-1.1,6.79
7.6117589473724365,-2.38,-6.26,-1.23,6.8
7.614729881286621,-2.51,-6.2,-1.29,6.81
7.629147052764893,-2.57,-6.12,-1.31,6.76
7.631135940551758,-2.56,-6.0,-1.26,6.64
7.6423468589782715,-2.47,-5.81,-1.14,6.41
7.650660991668701,-2.28,-5.57,-0.94,6.09
7.6606597900390625,-1.98,-5.35,-0.73,5.75
7.671116828918457,-1.56,-5.16,-0.62,5.42
7.681596755981445,-1.21,-4.97,-0.54,5.14
7.709346771240234,-0.89,-4.76,-0.45,4.86
7.711490869522095,-0.61,-4.51,-0.33,4.56
7.712996959686279,-0.38,-4.27,-0.23,4.29
7.728011846542358,-0.14,-4.06,-0.15,4.06
7.731145858764648,0.12,-3.84,-0.01,3.84
7.743079900741577,0.41,-3.59,0.19,3.61
7.751232862472534,0.8,-3.26,0.38,3.37
7.761353015899658,1.24,-2.86,0.56,3.16
7.771647930145264,1.75,-2.4,0.77,3.06
7.782247066497803,2.29,-1.91,0.99,3.14
7.809892892837524,2.77,-1.29,1.04,3.22
7.81278395652771,3.21,-0.62,1.04,3.43
7.815011978149414,3.69,-0.08,1.2,3.88
7.827898979187012,4.08,0.46,1.24,4.28
7.8319010734558105,4.41,1.02,1.26,4.69
7.842496871948242,4.77,1.56,1.21,5.16
7.851621866226196,5.08,2.04,1.07,5.57
7.862046957015991,5.4,2.38,1.03,5.99
7.872459888458252,5.63,2.49,0.97,6.23
7.882690906524658,5.62,2.62,0.94,6.27
7.909266948699951,5.36,2.93,1.19,6.22
7.9121270179748535,4.96,3.28,1.54,6.14
7.914088726043701,4.63,3.58,1.93,6.16
7.929423809051514,4.51,3.73,2.32,6.29
7.932233810424805,4.42,3.9,2.66,6.46
7.943137884140015,4.35,4.18,3.01,6.74
7.952898979187012,4.38,4.49,3.35,7.11
7.962759017944336,4.54,4.83,3.68,7.58
7.972959995269775,4.86,5.21,3.95,8.14
7.98305606842041,5.31,5.56,4.09,8.7
8.011648893356323,5.76,5.94,4.07,9.22
8.01454782485962,6.09,6.38,3.98,9.67
8.01665186882019,6.34,6.84,3.83,10.08
8.027804851531982,6.65,7.06,3.61,10.34
8.032880783081055,7.11,6.84,3.33,10.41
8.043212890625,7.6,6.47,3.08,10.44
8.053128957748413,8.01,6.3,2.99,10.62
8.063254833221436,8.44,6.28,3.07,10.95
8.07391095161438,9.04,6.41,3.22,11.54
8.083595752716064,9.74,6.51,3.36,12.18
8.111563920974731,10.37,6.65,3.4,12.77
8.114529848098755,10.59,6.8,3.28,13.0
8.116981983184814,10.23,6.91,2.9,12.68
8.127450942993164,9.34,6.93,2.3,11.85
8.133185863494873,8.37,6.77,1.77,10.9
8.14380693435669,7.31,6.39,1.4,9.8
8.153926849365234,6.19,5.87,1.32,8.63
8.16383695602417,5.12,5.29,1.41,7.49
8.174429893493652,4.24,4.72,1.64,6.55
8.184185028076172,3.58,4.19,1.92,5.83
8.211513996124268,3.12,3.68,2.23,5.31
8.214416027069092,2.79,3.2,2.45,4.9
8.216372013092041,2.52,2.62,2.55,4.44
8.22838306427002,2.19,2.05,2.48,3.89
8.233969926834106,1.83,1.56,2.33,3.34
8.244767904281616,1.4,1.18,2.13,2.8
8.254405975341797,1.0,0.84,1.83,2.24
8.264341831207275,0.77,0.48,1.51,1.76
8.275004863739014,0.78,-0.06,0.82,1.13
8.284986972808838,0.91,-0.77,0.33,1.23
8.31258487701416,0.63,-1.05,0.97,1.56
8.315486907958984,0.22,-0.04,1.28,1.29
8.317938804626465,0.52,0.16,0.4,0.67
8.328664779663086,1.55,-0.95,-0.37,1.85
8.334611892700195,2.28,-1.57,-0.59,2.83
8.345165729522705,2.42,-1.48,-0.37,2.86
8.355305910110474,2.24,-1.23,0.02,2.55
8.365423917770386,2.2,-1.38,0.25,2.6
8.375414848327637,2.38,-1.85,0.54,3.06
8.385388851165771,2.5,-2.04,0.95,3.36
8.415083885192871,2.54,-2.02,1.21,3.46
8.418254852294922,2.67,-2.18,1.28,3.67
8.420614957809448,2.81,-2.56,1.13,3.96
8.42763090133667,2.83,-2.95,0.9,4.18
8.435131072998047,2.57,-3.17,0.76,4.15
8.445429801940918,1.96,-3.01,0.82,3.68
8.456061840057373,1.45,-2.73,1.02,3.25
8.465627908706665,1.38,-2.91,1.07,3.39
8.476037979125977,1.54,-3.54,0.89,3.96
8.4860258102417,1.51,-4.12,0.7,4.44
8.514365911483765,1.33,-4.6,0.64,4.83
8.517279863357544,1.09,-5.03,0.62,5.18
8.518930912017822,0.84,-5.4,0.65,5.5
8.527665853500366,0.71,-5.79,0.62,5.86
8.535805940628052,0.57,-6.3,0.55,6.34
8.546238899230957,0.37,-6.7,0.46,6.72
8.556652069091797,0.02,-6.92,0.29,6.92
8.566084861755371,-0.48,-6.91,0.16,6.92
8.577899932861328,-0.92,-6.82,0.17,6.88
8.586669921875,-1.24,-6.85,0.15,6.96
8.616346836090088,-1.54,-6.91,0.14,7.08
8.620577812194824,-1.8,-7.0,0.15,7.22
8.62230396270752,-1.93,-7.14,0.24,7.4
8.6267569065094,-1.68,-7.52,0.33,7.71
8.642286777496338,-1.24,-8.05,0.2,8.14
8.64625883102417,-1.17,-8.29,-0.24,8.37
8.658668041229248,-1.62,-7.96,-0.63,8.14
8.667094945907593,-2.22,-7.19,-0.9,7.57
8.677190780639648,-2.54,-6.52,-1.18,7.09
8.68683385848999,-2.31,-6.37,-1.55,6.95
8.714073896408081,-1.71,-6.82,-2.11,7.34
8.71597695350647,-1.02,-7.68,-2.71,8.2
8.717650890350342,-0.6,-8.62,-3.14,9.19
8.726914882659912,-0.58,-9.14,-3.21,9.7
8.737013816833496,-0.85,-8.98,-2.73,9.42
8.747004985809326,-1.37,-8.17,-1.95,8.51
8.757715940475464,-1.76,-7.2,-1.15,7.5
8.767820835113525,-1.63,-6.58,-0.55,6.8
8.777628898620605,-1.17,-6.36,-0.18,6.46
8.788064956665039,-0.67,-6.37,0.0,6.4
8.815288066864014,-0.36,-6.4,0.08,6.41
8.818327903747559,-0.45,-6.34,0.17,6.35
8.820460796356201,-0.86,-6.1,0.3,6.16
8.827566862106323,-1.5,-5.73,0.33,5.93
8.837478876113892,-2.07,-5.45,0.16,5.83
8.847804069519043,-2.39,-5.4,-0.13,5.9
8.857834815979004,-2.54,-5.51,-0.56,6.09
8.86888599395752,-2.71,-5.68,-0.98,6.36
8.87837290763855,-2.89,-5.82,-1.23,6.61
8.888705730438232,-3.13,-5.81,-1.36,6.73
8.919156074523926,-3.39,-5.65,-1.41,6.73
8.922153949737549,-3.56,-5.45,-1.43,6.66
8.924535751342773,-3.54,-5.33,-1.43,6.55
8.928401947021484,-3.27,-5.24,-1.32,6.31
8.942515850067139,-2.77,-5.11,-1.05,5.9
8.948447942733765,-2.05,-4.99,-0.7,5.43
8.958699941635132,-1.35,-4.81,-0.32,5.0
8.968809843063354,-0.61,-4.5,0.1,4.54
8.978830814361572,0.15,-4.03,0.44,4.05
8.98950481414795,1.01,-3.46,0.77,3.68
9.018296957015991,2.1,-2.87,1.05,3.7
9.020823001861572,3.23,-2.36,1.12,4.15
9.023653984069824,4.28,-1.91,0.97,4.78
9.028933048248291,5.1,-1.54,0.69,5.37
9.04291582107544,5.52,-1.04,0.52,5.64
9.048964977264404,5.63,-0.26,0.33,5.64
9.05913782119751,5.8,0.4,0.13,5.81
9.069407939910889,6.05,0.8,0.16,6.1
9.080030918121338,6.3,0.94,0.73,6.41
9.089977741241455,6.5,1.03,1.38,6.72
9.117928981781006,6.56,1.1,1.76,6.88
9.120463848114014,6.4,1.11,2.19,6.85
9.12270975112915,6.02,1.18,2.84,6.76
9.129303932189941,5.49,1.43,3.4,6.61
9.143325805664062,4.95,1.83,3.73,6.46
9.1493399143219,4.62,2.28,3.91,6.46
9.159507751464844,4.63,2.7,3.99,6.68
9.16986894607544,4.99,3.0,4.03,7.08
9.179849863052368,5.39,3.42,4.03,7.54
9.190470933914185,5.83,3.96,4.04,8.12
9.218245029449463,6.28,4.54,4.04,8.73
9.22102403640747,6.73,5.05,4.0,9.31
9.223070859909058,7.15,5.45,3.91,9.8
9.229604721069336,7.48,5.78,3.68,10.14
9.243085861206055,7.71,5.97,3.4,10.32
9.249976873397827,8.09,5.91,3.16,10.5
9.260471820831299,8.58,5.68,2.9,10.69
9.270559787750244,9.01,5.53,2.7,10.91
9.280876874923706,9.42,5.61,2.65,11.27
9.291430950164795,9.74,5.81,2.68,11.65
9.31908392906189,9.87,6.06,2.66,11.88
9.321508884429932,9.91,6.24,2.53,11.98
9.323113918304443,9.89,6.24,2.29,11.91
9.330395936965942,9.61,6.09,1.81,11.52
9.343363761901855,9.0,6.0,1.14,10.87
9.350815773010254,8.03,5.94,0.41,9.99
9.361149787902832,6.82,5.86,-0.34,8.99
9.371486902236938,5.55,5.77,-1.0,8.06
9.381761074066162,4.29,5.68,-1.54,7.28
9.392111778259277,3.14,5.58,-1.9,6.67
9.41973090171814,2.17,5.46,-2.01,6.2
9.422910928726196,1.43,5.26,-1.93,5.78
9.425619840621948,0.91,5.01,-1.64,5.34
9.430815935134888,0.54,4.7,-1.17,4.87
9.443711757659912,0.34,4.38,-0.61,4.43
9.451193809509277,0.31,3.94,-0.02,3.95
9.4615797996521,0.35,3.41,0.53,3.46
9.471405982971191,0.35,3.0,1.01,3.18
9.481956958770752,0.37,2.78,1.37,3.12
9.492444038391113,0.5,2.6,1.72,3.15
9.520586013793945,0.83,2.42,1.92,3.19
9.524064064025879,1.22,2.26,1.96,3.23
9.525749921798706,1.63,2.07,1.93,3.26
9.531094074249268,2.04,1.87,1.89,3.35
9.541831970214844,2.49,1.64,1.81,3.48
9.552034854888916,2.92,1.33,1.75,3.65
9.562050819396973,3.27,1.02,1.66,3.8
9.57262372970581,3.54,0.69,1.56,3.92
9.582284927368164,3.74,0.29,1.45,4.02
9.594605922698975,3.85,-0.11,1.34,4.07
9.623995780944824,3.89,-0.49,1.27,4.12
9.625917911529541,3.85,-0.92,1.26,4.15
9.627191066741943,3.72,-1.27,1.33,4.14
9.631683826446533,3.52,-1.59,1.45,4.12
9.642374038696289,3.15,-1.84,1.59,3.97
9.65230393409729,2.62,-1.93,1.74,3.69
9.662675857543945,2.18,-2.01,1.95,3.54
9.672788858413696,1.96,-2.36,2.18,3.76
9.682947874069214,1.88,-2.84,2.18,4.04
9.693459033966064,1.72,-3.38,1.87,4.22
9.718731880187988,1.47,-3.91,1.59,4.46
9.7205810546875,1.23,-4.32,1.5,4.73
9.722570896148682,0.99,-4.68,1.54,5.02
9.732524871826172,0.82,-5.05,1.54,5.34
9.743587970733643,0.75,-5.43,1.49,5.68
9.753188848495483,0.75,-5.83,1.31,6.02
9.763164043426514,0.75,-6.19,1.1,6.33
9.773628950119019,0.64,-6.47,0.84,6.55
9.783812046051025,0.31,-6.62,0.56,6.65
9.793787956237793,-0.15,-6.64,0.45,6.65
9.82181978225708,-0.56,-6.62,0.51,6.66
9.825174808502197,-0.92,-6.66,0.6,6.74
9.827857971191406,-1.31,-6.72,0.67,6.87
9.833152770996094,-1.67,-6.82,0.82,7.06
9.843994855880737,-1.75,-6.9,1.03,7.19
9.854151725769043,-1.35,-7.23,1.07,7.43
9.863906860351562,-0.7,-7.86,0.88,7.94
9.87437891960144,-0.35,-8.27,0.46,8.29
9.884618759155273,-0.47,-8.26,0.11,8.27
9.894486904144287,-0.85,-7.92,0.06,7.96
9.922791957855225,-1.42,-7.35,0.06,7.48
9.925551891326904,-1.78,-6.89,0.04,7.11
9.927674770355225,-1.56,-6.95,-0.03,7.12
9.933767795562744,-1.04,-7.39,-0.25,7.46
9.944056987762451,-0.71,-7.84,-0.57,7.89
9.954439878463745,-0.64,-8.1,-0.75,8.15
9.964757919311523,-0.79,-8.1,-0.76,8.17
9.974807739257812,-1.12,-7.89,-0.63,7.99
9.984799861907959,-1.5,-7.59,-0.57,7.75
9.99513292312622,-1.66,-7.38,-0.65,7.59
10.023237943649292,-1.63,-7.26,-0.86,7.49
10.02623176574707,-1.74,-7.15,-1.15,7.44
10.02853775024414,-2.05,-6.97,-1.42,7.4
10.033974885940552,-2.47,-6.7,-1.6,7.31
10.044910907745361,-2.85,-6.41,-1.75,7.23
10.05526876449585,-3.13,-6.12,-1.89,7.12
10.065841913223267,-3.26,-5.96,-2.0,7.08
10.075499057769775,-3.23,-5.91,-2.05,7.04
10.08565902709961,-3.13,-5.87,-1.95,6.93
10.095958948135376,-2.96,-5.8,-1.66,6.71
10.122976779937744,-2.71,-5.66,-1.28,6.4
10.126131057739258,-2.48,-5.49,-0.95,6.09
10.12858772277832,-2.29,-5.23,-0.6,5.74
10.134630918502808,-2.12,-4.89,-0.3,5.33
10.14527702331543,-1.89,-4.6,-0.06,4.97
10.155838012695312,-1.52,-4.35,0.07,4.6
10.165605068206787,-1.08,-4.13,0.05,4.26
10.175633907318115,-0.66,-3.91,0.05,3.96
10.186023950576782,-0.28,-3.67,0.19,3.68
10.196379899978638,0.11,-3.38,0.45,3.41
10.223610877990723,0.48,-2.96,0.64,3.06
10.22684383392334,0.87,-2.51,0.78,2.76
10.228846073150635,1.36,-2.1,0.99,2.69
10.235193729400635,1.89,-1.64,1.19,2.77
10.245980739593506,2.4,-1.13,1.37,2.98
10.255606889724731,2.86,-0.61,1.53,3.3
10.266368865966797,3.24,0.0,1.61,3.61
10.276731014251709,3.63,0.58,1.61,4.01
10.286524772644043,3.98,1.16,1.52,4.41
10.296939849853516,4.33,1.7,1.34,4.84
10.324841022491455,4.77,2.1,1.19,5.34
10.327525854110718,5.02,2.44,1.15,5.69
10.329384803771973,5.11,2.7,1.14,5.89
10.347486019134521,5.12,2.97,1.09,6.01
10.349920749664307,5.02,3.23,1.2,6.08
10.360436916351318,4.92,3.51,1.45,6.21
10.366955757141113,4.82,3.78,1.7,6.35
10.377289772033691,4.83,4.01,1.98,6.58
10.387129783630371,4.88,4.17,2.22,6.79
10.397573947906494,4.95,4.4,2.48,7.07
10.426352977752686,5.01,4.76,2.81,7.46
10.429455757141113,5.07,5.18,3.15,7.9
10.431804895401001,5.17,5.57,3.41,8.32
10.446850776672363,5.33,5.88,3.55,8.69
10.449461936950684,5.58,6.11,3.59,9.01
10.45976185798645,5.76,6.41,3.55,9.32
10.467427730560303,5.88,6.78,3.39,9.59
10.4775710105896,6.16,7.02,3.11,9.84
10.487660884857178,6.66,6.9,2.68,9.95
10.498178005218506,7.22,6.44,2.29,9.94
10.52567195892334,7.69,5.99,2.26,10.0
10.528405904769897,8.01,5.96,2.37,10.26
10.530667781829834,8.32,6.24,2.6,10.72
10.547348976135254,8.94,6.55,2.92,11.46
10.549854755401611,9.72,6.67,3.16,12.2
10.561410903930664,10.36,6.65,3.24,12.72
10.568297863006592,10.63,6.67,3.12,12.93
10.578136920928955,10.41,6.74,2.84,12.72
10.58874797821045,9.67,6.7,2.48,12.02
10.598765850067139,8.69,6.4,2.15,11.0
10.62949800491333,7.67,5.91,1.85,9.85
10.632383823394775,6.55,5.34,1.58,8.59
10.634020805358887,5.51,4.78,1.39,7.42
10.647652864456177,4.73,4.2,1.31,6.45
10.650193929672241,4.19,3.51,1.3,5.61
10.661411762237549,3.79,2.79,1.3,4.88
10.668715000152588,3.48,2.08,1.35,4.27
10.6788010597229,3.18,1.39,1.49,3.77
10.689889907836914,2.87,0.75,1.52,3.33
10.6994948387146,2.55,0.1,1.47,2.94
10.726800918579102,2.17,-0.54,1.42,2.64
10.729647874832153,1.8,-1.36,1.15,2.53
10.73130178451538,1.53,-2.31,0.65,2.84
10.74610185623169,1.02,-2.96,1.13,3.32
10.749161958694458,0.1,-2.54,1.7,3.05
10.760824918746948,-0.53,-1.36,1.21,1.89
10.769659042358398,-0.06,-1.53,0.52,1.61
10.779631853103638,0.99,-2.3,-0.06,2.5
10.790839910507202,1.59,-2.77,-0.4,3.21
10.799976825714111,1.63,-2.63,-0.2,3.1
10.828485012054443,1.37,-2.23,0.1,2.61
10.831415891647339,1.2,-2.28,0.12,2.57
10.833570957183838,1.33,-2.67,0.31,2.99
10.84607195854187,1.42,-2.99,0.64,3.37
10.849719047546387,1.36,-3.22,0.97,3.62
10.86074686050415,1.27,-3.51,1.26,3.93
10.869919776916504,1.16,-3.8,1.46,4.23
10.880289077758789,1.0,-4.0,1.51,4.39
10.89086103439331,0.87,-4.24,1.43,4.55
10.900718927383423,0.72,-4.53,1.29,4.76
10.928311824798584,0.44,-4.69,1.17,4.85
10.931115865707397,0.15,-4.74,1.14,4.87
10.932820796966553,-0.11,-4.79,1.16,4.92
10.947484016418457,-0.28,-4.93,1.14,5.06
10.950254917144775,-0.34,-5.19,1.12,5.32
10.962147951126099,-0.39,-5.47,1.07,5.58
10.970752954483032,-0.51,-5.69,1.0,5.79
10.980597019195557,-0.61,-5.95,0.96,6.05
10.990826845169067,-0.81,-6.23,0.93,6.35
11.001514911651611,-1.02,-6.5,0.92,6.64
11.027406930923462,-1.24,-6.71,0.86,6.87
11.030349731445312,-1.57,-6.76,0.79,6.98
11.032548904418945,-1.94,-6.65,0.68,6.96
11.046887874603271,-2.22,-6.48,0.55,6.87
11.050813913345337,-2.32,-6.46,0.38,6.87
11.06107473373413,-2.39,-6.52,0.15,6.94
11.071009874343872,-2.38,-6.6,-0.08,7.01
11.08131194114685,-2.26,-6.87,-0.25,7.23
11.09160590171814,-2.01,-7.32,-0.26,7.59
11.102089881896973,-1.73,-7.8,-0.29,7.99
11.128666877746582,-1.67,-8.14,-0.36,8.31
11.131515979766846,-1.76,-8.15,-0.35,8.34
11.133720874786377,-1.82,-7.87,-0.3,8.08
11.146032810211182,-1.59,-7.58,-0.29,7.75
11.151830911636353,-1.1,-7.43,-0.38,7.52
11.161587953567505,-0.4,-7.47,-0.51,7.49
11.172102928161621,0.21,-7.42,-0.56,7.44
11.181817054748535,0.64,-7.34,-0.53,7.38
11.192546844482422,0.83,-7.11,-0.33,7.16
11.202210903167725,0.74,-6.69,-0.02,6.73
11.228978872299194,0.57,-6.19,0.33,6.22
11.232079982757568,0.47,-5.76,0.6,5.81
11.233767032623291,0.54,-5.42,0.69,5.49
11.24686574935913,0.7,-5.19,0.61,5.27
11.25197696685791,0.81,-5.01,0.4,5.09
11.26259183883667,0.69,-4.82,0.07,4.86
11.272549867630005,0.33,-4.68,-0.3,4.7
11.282431840896606,-0.29,-4.51,-0.71,4.57
11.29315996170044,-0.96,-4.4,-1.11,4.63
11.302994728088379,-1.57,-4.36,-1.43,4.84
11.32942795753479,-2.05,-4.35,-1.68,5.09
11.332293033599854,-2.45,-4.32,-1.84,5.29
11.334517002105713,-2.79,-4.18,-1.91,5.37
11.346168994903564,-2.95,-3.95,-1.86,5.26
11.352622032165527,-2.81,-3.73,-1.67,4.95
11.363168954849243,-2.4,-3.51,-1.49,4.5
11.373214721679688,-1.88,-3.35,-1.37,4.07
11.38317084312439,-1.34,-3.16,-1.18,3.62
11.3936767578125,-0.78,-2.9,-0.91,3.13
11.404160976409912,-0.26,-2.6,-0.64,2.69
11.43239974975586,0.19,-2.23,-0.38,2.27
11.434525966644287,0.63,-1.81,-0.13,1.92
11.436161994934082,1.29,-1.5,-0.03,1.97
11.444893836975098,2.1,-1.22,0.02,2.42
11.45297884941101,2.87,-0.89,0.09,3.0
11.464012861251831,3.64,-0.32,0.29,3.66
11.474045753479004,4.47,0.22,0.82,4.54
11.483901023864746,5.25,0.85,1.42,5.5
11.493988990783691,5.9,1.63,1.95,6.42
11.504066944122314,6.38,2.38,2.3,7.18
11.532227993011475,6.69,3.03,2.42,7.73
11.534996032714844,6.84,3.49,2.2,7.98
11.536698818206787,6.61,3.78,1.7,7.8
11.546254873275757,5.99,4.02,1.19,7.31
11.55379581451416,5.19,4.26,0.96,6.78
11.564507007598877,4.33,4.47,1.0,6.3
11.57443380355835,3.45,4.66,1.18,5.91
11.584245920181274,2.69,4.8,1.56,5.71
11.59476089477539,2.2,4.76,1.99,5.6
11.604728937149048,1.93,4.58,2.4,5.51
11.637224912643433,1.71,4.51,2.71,5.53
11.639253854751587,1.5,4.48,2.91,5.54
11.64092493057251,1.35,4.43,3.06,5.55
11.645417928695679,1.27,4.42,3.07,5.52
11.6612708568573,1.43,4.46,2.86,5.48
11.664541721343994,2.0,4.47,2.49,5.49
11.676965951919556,2.94,4.51,2.22,5.82
11.68479585647583,3.99,4.78,1.91,6.51
11.69507884979248,5.05,5.17,1.59,7.39
11.70546579360962,5.85,5.44,1.2,8.07
11.734855890274048,6.17,5.55,0.83,8.34
11.737624883651733,6.18,5.37,0.76,8.22
11.739545822143555,5.9,4.89,1.08,7.73
11.745173931121826,5.58,4.51,1.58,7.34
11.754777908325195,5.36,4.39,2.19,7.26
11.765183925628662,5.26,4.52,2.93,7.52
11.776023864746094,5.34,4.82,3.66,8.07
11.785352945327759,5.5,5.03,4.2,8.55
11.795971870422363,5.49,5.08,4.36,8.65
11.80598497390747,5.06,5.03,4.24,8.29
11.834913730621338,4.25,4.96,3.99,7.65
11.837251901626587,3.18,4.91,3.67,6.9
11.838887929916382,2.02,4.94,3.27,6.25
11.845381736755371,1.09,5.01,2.97,5.92
11.855539798736572,0.66,5.03,2.84,5.81
11.865952014923096,0.72,4.99,2.72,5.72
11.876451015472412,1.07,4.85,2.52,5.56
11.886067867279053,1.53,4.69,2.25,5.42
11.896245956420898,1.9,4.59,2.05,5.37
11.90671992301941,2.15,4.46,1.98,5.33
11.935379028320312,2.28,4.22,1.96,5.18
11.93790578842163,2.25,3.82,1.98,4.85
11.939559936523438,2.11,3.31,1.97,4.39
11.94588589668274,1.88,2.83,1.98,3.93
11.956155776977539,1.66,2.34,2.02,3.5
11.966273784637451,1.53,1.97,2.01,3.2
11.97704291343689,1.6,1.6,1.94,2.98
11.98671579360962,1.88,1.17,1.74,2.81
11.996662855148315,2.24,0.76,1.52,2.81
12.007544994354248,2.62,0.29,1.34,2.95
12.036722898483276,2.98,-0.19,1.23,3.22
12.039700984954834,3.22,-0.65,1.22,3.5
12.0414137840271,3.34,-1.08,1.2,3.7
12.046431064605713,3.38,-1.48,1.18,3.87
12.06106686592102,3.33,-1.8,1.14,3.95
12.066902875900269,3.19,-2.03,1.01,3.91
12.077406883239746,3.08,-2.21,0.83,3.88
12.087220907211304,2.91,-2.45,0.56,3.84
12.097876071929932,2.63,-2.74,0.29,3.8
12.108047008514404,2.24,-3.0,0.12,3.74
12.137425899505615,1.78,-3.22,0.07,3.67
12.140411853790283,1.35,-3.41,0.21,3.67
12.142289876937866,0.96,-3.55,0.42,3.7
12.147063732147217,0.7,-3.65,0.53,3.75
12.161163806915283,0.4,-3.82,0.46,3.86
12.167715072631836,0.07,-3.98,0.36,3.99
12.178151845932007,-0.29,-4.11,0.33,4.13
12.18833875656128,-0.63,-4.24,0.33,4.29
12.19852876663208,-0.97,-4.32,0.33,4.43
12.208569049835205,-1.16,-4.35,0.3,4.51
12.23616886138916,-1.16,-4.44,0.27,4.59
12.238873958587646,-1.03,-4.61,0.19,4.72
12.241657733917236,-0.86,-4.84,0.07,4.91
12.248018741607666,-0.72,-5.02,-0.03,5.07
12.261199951171875,-0.68,-5.21,-0.13,5.25
12.268280029296875,-0.8,-5.32,-0.23,5.38
12.278223991394043,-1.01,-5.26,-0.23,5.36
12.28910493850708,-1.24,-5.11,-0.19,5.26
12.298916816711426,-1.42,-5.1,-0.17,5.29
12.309342861175537,-1.45,-5.24,-0.2,5.44
12.33690881729126,-1.38,-5.44,-0.25,5.61
12.339739799499512,-1.17,-5.72,-0.18,5.84
12.342267990112305,-0.56,-6.22,0.0,6.24
12.348515033721924,0.13,-6.97,0.03,6.97
12.361384868621826,0.4,-7.52,-0.02,7.53
12.368631839752197,0.19,-7.46,0.03,7.46
12.37882375717163,-0.26,-6.92,0.2,6.92
12.388993740081787,-0.61,-6.32,0.24,6.35
12.399122953414917,-0.86,-5.81,0.18,5.87
12.409310817718506,-0.86,-5.51,0.06,5.57
12.437562942504883,-0.71,-5.48,-0.16,5.52
12.4406578540802,-0.55,-5.63,-0.37,5.66
12.442368030548096,-0.5,-5.72,-0.49,5.76
12.449106931686401,-0.65,-5.63,-0.42,5.68
12.460776805877686,-0.81,-5.45,-0.26,5.51
12.469385862350464,-0.74,-5.38,-0.15,5.43
12.47965693473816,-0.38,-5.5,-0.26,5.51
12.489805936813354,-0.1,-5.65,-0.62,5.68
12.500531911849976,-0.22,-5.67,-1.1,5.77
12.510617733001709,-0.68,-5.55,-1.52,5.79
12.541121006011963,-1.31,-5.35,-1.79,5.79
12.542980909347534,-1.86,-5.28,-2.01,5.94
12.54482889175415,-2.26,-5.26,-2.14,6.11
12.549983978271484,-2.59,-5.2,-2.1,6.17
12.559991836547852,-2.85,-5.07,-1.93,6.12
12.570162773132324,-2.95,-4.89,-1.63,5.93
12.580458879470825,-2.82,-4.72,-1.24,5.63
12.590634822845459,-2.49,-4.57,-0.85,5.27
12.600759983062744,-2.1,-4.39,-0.51,4.89
12.611656904220581,-1.69,-4.22,-0.22,4.55
12.640426874160767,-1.31,-4.07,0.0,4.27
12.643064975738525,-0.97,-3.93,0.13,4.05
12.64529800415039,-0.72,-3.74,0.19,3.81
12.65005874633789,-0.6,-3.54,0.18,3.59
12.660274982452393,-0.61,-3.32,0.19,3.38
12.670354843139648,-0.57,-3.12,0.18,3.17
12.680649757385254,-0.48,-2.9,0.18,2.94
12.691134929656982,-0.35,-2.66,0.23,2.69
12.701297760009766,-0.12,-2.43,0.33,2.45
12.711788892745972,0.15,-2.16,0.49,2.21
12.739253044128418,0.45,-1.86,0.65,2.02
12.741399765014648,0.75,-1.48,0.78,1.83
12.742553949356079,1.05,-1.12,0.87,1.76
12.750385761260986,1.35,-0.74,0.87,1.76
12.761456966400146,1.62,-0.35,0.87,1.87
12.770854949951172,1.95,0.04,0.91,2.15
12.78157091140747,2.21,0.44,1.09,2.5
12.791674852371216,2.39,0.89,1.42,2.91
12.801801919937134,2.58,1.31,1.55,3.28
12.812298774719238,2.68,1.58,1.41,3.41
12.840888977050781,2.75,1.72,1.24,3.47
12.843711853027344,2.87,1.85,1.25,3.63
12.845449924468994,2.87,2.04,1.39,3.78
12.851350784301758,2.81,2.27,1.54,3.92
12.861916065216064,2.81,2.52,1.76,4.16
12.872128963470459,2.94,2.74,1.96,4.47
12.88216495513916,3.12,2.94,2.12,4.78
12.892644882202148,3.3,3.24,2.34,5.18
12.902234077453613,3.52,3.71,2.64,5.75
12.912698745727539,3.85,4.27,3.01,6.48
12.940608978271484,4.37,4.74,3.32,7.25
12.943744897842407,5.08,5.14,3.44,8.0
12.946232795715332,5.73,5.54,3.4,8.66
12.951485872268677,6.15,5.99,3.27,9.18
12.961967945098877,6.38,6.45,3.05,9.57
12.972810745239258,6.48,6.83,2.78,9.81
12.982402801513672,6.6,6.96,2.52,9.91
12.992925882339478,6.93,6.68,2.29,9.89
13.002928733825684,7.37,6.11,2.16,9.81
13.01381778717041,7.68,5.76,2.25,9.86
13.041544914245605,7.88,5.71,2.57,10.06
13.043899059295654,8.12,5.92,3.12,10.52
13.045711040496826,8.4,6.19,3.67,11.06
13.052356958389282,8.68,6.27,4.1,11.46
13.062812805175781,8.81,6.22,4.23,11.58
13.073304891586304,8.55,6.22,4.07,11.32
13.083377838134766,7.9,6.19,3.71,10.7
13.093421936035156,7.06,6.06,3.26,9.85
13.1038179397583,6.25,5.79,2.84,8.98
13.113734722137451,5.58,5.37,2.45,8.12
13.142394065856934,5.01,4.86,2.14,7.3
13.14517879486084,4.52,4.37,1.94,6.57
13.146781921386719,4.11,3.84,1.9,5.93
13.16487193107605,3.83,3.31,1.99,5.43
13.167322874069214,3.65,2.75,2.09,5.02
13.179192066192627,3.4,2.1,2.11,4.51
13.183884859085083,3.04,1.39,2.04,3.91
13.194598913192749,2.65,0.65,1.94,3.34
13.204263925552368,2.19,-0.09,1.8,2.83
13.21433401107788,1.63,-0.73,1.55,2.36
13.242919921875,1.06,-1.21,1.22,2.01
13.245933055877686,0.53,-1.51,0.94,1.85
13.248108863830566,0.18,-1.64,0.66,1.77
13.263956069946289,-0.03,-1.56,0.47,1.62
13.266161918640137,-0.03,-1.57,0.42,1.62
13.279184818267822,0.24,-1.58,0.32,1.62
13.284456729888916,0.72,-1.66,0.36,1.84
13.294554948806763,1.14,-1.74,0.47,2.13
13.304849863052368,1.37,-1.86,0.58,2.38
13.314877033233643,1.37,-1.97,0.67,2.49
13.34332799911499,1.24,-2.09,0.72,2.53
13.345972061157227,1.12,-2.21,0.77,2.59
13.347603797912598,1.09,-2.35,0.82,2.71
13.364606857299805,1.1,-2.58,0.86,2.93
13.366950035095215,1.09,-2.82,0.91,3.15
13.378808975219727,0.99,-3.05,0.9,3.33
13.385108947753906,0.77,-3.3,0.86,3.49
13.394952774047852,0.57,-3.5,0.81,3.63
13.405512809753418,0.32,-3.69,0.74,3.77
13.415520906448364,0.04,-3.87,0.66,3.92
13.44385576248169,-0.35,-3.9,0.64,3.96
13.446611881256104,-0.7,-3.85,0.65,3.96
13.44828176498413,-0.96,-3.97,0.62,4.13
13.466003894805908,-1.13,-4.21,0.51,4.38
13.467989921569824,-1.28,-4.49,0.4,4.68
13.47895884513855,-1.41,-4.75,0.35,4.96
13.4859299659729,-1.53,-4.99,0.29,5.22
13.495703935623169,-1.64,-5.17,0.22,5.42
13.505780935287476,-1.76,-5.37,0.15,5.65
13.51621389389038,-1.9,-5.53,0.14,5.84
13.544664859771729,-2.11,-5.54,0.15,5.93
13.547618865966797,-2.39,-5.48,0.16,5.98
13.549698829650879,-2.63,-5.4,0.13,6.0
13.567113876342773,-2.81,-5.27,0.09,5.97
13.569690942764282,-2.92,-5.12,0.08,5.89
13.577984809875488,-2.93,-5.08,0.06,5.86
13.586017847061157,-2.77,-5.18,0.02,5.87
13.596367835998535,-2.47,-5.45,-0.04,5.98
13.60644006729126,-1.98,-5.98,-0.09,6.29
13.617102861404419,-1.5,-6.72,-0.12,6.88
13.635227918624878,-1.26,-7.32,-0.1,7.42
13.637718915939331,-1.26,-7.47,0.06,7.57
13.647067070007324,-1.25,-7.27,0.29,7.38
13.656856060028076,-1.09,-6.95,0.5,7.05
13.66771388053894,-0.79,-6.71,0.69,6.79
13.677104949951172,-0.21,-6.56,0.82,6.61
13.687241077423096,0.37,-6.53,0.84,6.59
13.697125911712646,0.51,-6.39,0.84,6.46
13.707525730133057,0.33,-6.12,0.82,6.18
13.717514038085938,0.11,-5.85,0.78,5.9
13.748301982879639,-0.05,-5.64,0.64,5.67
13.75176477432251,-0.08,-5.49,0.36,5.5
13.75435495376587,-0.01,-5.26,0.09,5.26
13.764622926712036,-0.05,-4.91,-0.16,4.91
13.767268896102905,-0.22,-4.54,-0.39,4.56
13.779520988464355,-0.41,-4.27,-0.65,4.33
13.787495851516724,-0.71,-4.08,-0.97,4.25
13.7981538772583,-1.08,-3.98,-1.31,4.32
13.808143854141235,-1.41,-4.02,-1.65,4.56
13.818030834197998,-1.76,-4.06,-1.92,4.82
13.846261978149414,-2.09,-4.08,-2.09,5.03
13.849268913269043,-2.21,-4.15,-2.14,5.16
13.851633071899414,-2.2,-4.14,-2.04,5.11
13.864585876464844,-2.1,-4.04,-1.82,4.9
13.867738723754883,-2.08,-3.81,-1.62,4.63
13.879199028015137,-2.26,-3.32,-1.42,4.25
13.888081073760986,-2.35,-2.94,-1.12,3.92
13.898385047912598,-2.16,-2.65,-0.91,3.53
13.908998012542725,-1.72,-2.36,-0.72,3.0
13.91848087310791,-1.21,-2.15,-0.53,2.52
13.945757865905762,-0.71,-1.77,-0.49,1.96
13.948951721191406,-0.06,-1.47,-0.65,1.6
13.950825929641724,0.64,-1.18,-0.67,1.5
13.965472936630249,1.07,-0.61,-0.79,1.46
13.968220949172974,1.4,-0.06,-1.07,1.76
13.979711055755615,1.96,0.3,-1.33,2.38
13.988825798034668,2.72,0.38,-1.07,2.94
13.999032974243164,3.3,0.6,-0.4,3.37
14.00943899154663,3.74,0.86,0.18,3.84
14.018685817718506,4.14,0.98,0.85,4.33
14.045530796051025,4.38,0.99,1.43,4.71
14.048354864120483,4.41,1.02,1.58,4.79
14.050526857376099,4.27,1.25,1.33,4.64
14.065314769744873,4.13,1.43,1.13,4.51
14.069018840789795,4.09,1.59,1.2,4.54
14.079380989074707,3.98,1.86,1.21,4.55
14.089319944381714,3.85,2.15,1.29,4.59
14.099835872650146,3.76,2.4,1.53,4.71
14.11003589630127,3.6,2.65,1.91,4.86
14.119552850723267,3.4,2.93,2.4,5.08
14.146193027496338,3.12,3.16,2.95,5.33
14.148623943328857,2.87,3.35,3.51,5.63
14.150276899337769,2.75,3.47,4.04,5.99
14.164844989776611,2.76,3.52,4.5,6.34
14.169354915618896,2.9,3.56,4.89,6.7
14.179774761199951,3.19,3.62,5.21,7.1
14.189888000488281,3.57,3.74,5.39,7.46
14.199816942214966,4.01,4.02,5.42,7.84
14.210617065429688,4.53,4.53,5.24,8.27
14.220394849777222,5.0,5.1,4.9,8.66
14.247323989868164,5.55,5.52,4.41,8.98
14.250303745269775,6.36,5.5,3.74,9.2
14.252354860305786,7.12,5.04,2.95,9.2
14.264232873916626,7.64,4.56,2.39,9.21
14.270133018493652,7.94,4.28,2.26,9.29
14.28049087524414,8.17,4.19,2.44,9.5
14.290340900421143,8.39,4.25,2.73,9.79
14.300772905349731,8.52,4.4,2.97,10.03
14.311280727386475,8.35,4.57,3.13,10.02
14.320981979370117,7.86,4.71,3.21,9.7
14.350687026977539,7.19,4.59,3.19,9.1
14.35358476638794,6.33,4.17,3.22,8.23
14.355783939361572,5.31,3.7,3.38,7.3
14.363340854644775,4.29,3.34,3.58,6.5
14.37055778503418,3.53,2.98,3.76,5.95
14.380974769592285,3.05,2.59,3.87,5.56
14.391310930252075,2.79,2.26,3.8,5.22
14.401183843612671,2.62,1.97,3.59,4.86
14.411763906478882,2.45,1.72,3.28,4.44
14.421632766723633,2.25,1.51,2.97,4.02
14.448468923568726,2.03,1.27,2.67,3.58
14.451387882232666,1.74,1.01,2.41,3.13
14.45372200012207,1.42,0.69,2.19,2.69
14.464369773864746,1.05,0.33,1.97,2.25
14.471306800842285,0.7,-0.04,1.72,1.85
14.481657981872559,0.37,-0.4,1.4,1.5
14.491873741149902,0.08,-0.77,1.05,1.3
14.50219202041626,-0.14,-1.03,0.68,1.24
14.512172937393188,-0.19,-1.29,0.33,1.34
14.522134780883789,-0.1,-1.51,-0.03,1.51
14.552267074584961,-0.04,-1.67,-0.42,1.72
14.555113792419434,0.08,-1.87,-0.64,1.97
14.557496070861816,0.26,-1.96,-0.62,2.07
14.56491494178772,0.29,-1.96,-0.64,2.08
14.572399854660034,0.14,-1.87,-0.84,2.05
14.58235788345337,0.13,-2.0,-0.83,2.16
14.592386722564697,0.19,-2.1,-0.49,2.16
14.601996898651123,0.19,-2.21,-0.27,2.23
14.613822937011719,0.21,-2.36,-0.13,2.37
14.623528957366943,0.24,-2.55,-0.01,2.56
14.651674747467041,0.18,-2.72,0.08,2.72
14.654226779937744,0.03,-2.9,0.17,2.9
14.655894756317139,-0.15,-3.1,0.28,3.11
14.663662910461426,-0.34,-3.32,0.37,3.35
14.673012733459473,-0.51,-3.46,0.45,3.52
14.683177947998047,-0.73,-3.43,0.49,3.54
14.693150043487549,-0.9,-3.38,0.53,3.53
14.702840805053711,-1.01,-3.44,0.47,3.61
14.713329792022705,-1.19,-3.51,0.37,3.72
14.722961902618408,-1.42,-3.53,0.38,3.82
14.751039028167725,-1.52,-3.63,0.46,3.96
14.753111839294434,-1.49,-3.89,0.53,4.19
14.754763841629028,-1.42,-4.18,0.49,4.44
14.763257026672363,-1.3,-4.46,0.43,4.66
14.77322793006897,-1.07,-4.72,0.44,4.85
14.783331871032715,-0.92,-4.9,0.42,5.0
14.793681859970093,-0.95,-4.93,0.34,5.03
14.803627014160156,-1.06,-4.87,0.32,4.99
14.813585758209229,-1.17,-4.81,0.36,4.96
14.824039936065674,-1.18,-4.84,0.39,4.99
14.851603984832764,-1.04,-4.97,0.35,5.08
14.854016780853271,-0.75,-5.28,0.33,5.34
14.85562801361084,-0.37,-5.76,0.3,5.77
14.863553047180176,-0.15,-6.16,0.3,6.16
14.873331069946289,-0.02,-6.25,0.44,6.26
14.884390830993652,0.26,-6.17,0.64,6.2
14.894292831420898,0.47,-6.04,0.65,6.09
14.904124736785889,0.66,-5.85,0.44,5.9
14.91457486152649,0.79,-5.78,0.12,5.83
14.9249267578125,0.48,-5.68,-0.16,5.7
14.954242944717407,-0.16,-5.3,-0.21,5.3
14.957270860671997,-0.85,-4.67,-0.02,4.74
14.95983076095581,-1.42,-4.08,0.31,4.33
14.964269876480103,-1.7,-3.72,0.55,4.12
14.979107856750488,-1.71,-3.6,0.67,4.04
14.98439073562622,-1.45,-3.73,0.68,4.05
14.995474815368652,-1.11,-3.96,0.65,4.16
15.004683017730713,-0.89,-4.19,0.49,4.31
15.015193939208984,-0.83,-4.28,0.22,4.36
15.025536060333252,-0.96,-4.31,-0.14,4.41
15.054011821746826,-1.22,-4.31,-0.59,4.51
15.056777954101562,-1.5,-4.34,-0.99,4.69
15.058472871780396,-1.81,-4.41,-1.31,4.94
15.064498901367188,-2.08,-4.41,-1.57,5.12
15.075303077697754,-2.29,-4.41,-1.64,5.23
15.085350036621094,-2.47,-4.34,-1.62,5.24
15.095192909240723,-2.63,-4.19,-1.47,5.16
15.105747938156128,-2.68,-3.96,-1.16,4.92
15.115889072418213,-2.52,-3.69,-0.81,4.54
15.12595796585083,-2.25,-3.41,-0.59,4.12
15.155911922454834,-1.96,-3.12,-0.44,3.71
15.159372806549072,-1.71,-2.84,-0.28,3.32
15.16209888458252,-1.49,-2.53,-0.13,2.93
15.165887832641602,-1.28,-2.27,0.0,2.6
15.175413846969604,-1.08,-2.0,0.06,2.27
15.185688018798828,-0.85,-1.74,0.06,1.93
15.196126937866211,-0.65,-1.43,0.05,1.57
15.206052780151367,-0.41,-1.1,0.01,1.17
15.21604299545288,-0.2,-0.75,0.05,0.77
15.226629734039307,0.06,-0.35,0.1,0.36
15.254648923873901,0.41,0.02,0.09,0.42
15.257330894470215,0.88,0.32,0.18,0.95
15.258988857269287,1.33,0.62,0.33,1.5
15.265669822692871,1.68,0.97,0.49,2.0
15.279507875442505,2.13,1.2,0.73,2.55
15.286087989807129,2.51,1.36,0.83,2.97
15.296462059020996,2.72,1.52,0.76,3.2
15.30656385421753,2.78,1.7,0.68,3.32
15.317064762115479,2.75,1.85,0.74,3.39
15.326849937438965,2.62,1.97,0.89,3.39
15.354911804199219,2.48,2.07,1.04,3.39
15.3575119972229,2.4,2.1,1.13,3.38
15.360107898712158,2.41,2.06,1.19,3.38
15.36676287651062,2.44,2.07,1.27,3.44
15.37999677658081,2.51,2.23,1.46,3.66
15.386956930160522,2.67,2.48,1.66,4.0
15.397063732147217,2.96,2.73,1.96,4.47
15.407866954803467,3.37,2.96,2.31,5.04
15.417552947998047,3.77,3.19,2.58,5.57
15.427817821502686,4.11,3.45,2.79,6.04
15.456722736358643,4.35,3.79,3.01,6.5
15.459945917129517,4.52,4.21,3.15,6.93
15.462612867355347,4.63,4.53,3.23,7.23
15.466877937316895,4.67,4.8,3.29,7.46
15.477110862731934,4.62,5.07,3.35,7.63
15.487419843673706,4.73,5.19,3.41,7.8
15.497747898101807,5.22,4.87,3.44,7.92
15.508018016815186,5.98,4.18,3.36,8.03
15.518308877944946,6.65,3.61,3.28,8.24
15.528356075286865,7.39,3.42,3.36,8.8
15.557199954986572,8.06,3.55,3.54,9.49
15.559581756591797,8.64,3.93,3.68,10.18
15.56119680404663,8.82,4.49,3.7,10.56
15.567579746246338,8.49,5.15,3.52,10.53
15.578145980834961,7.79,5.66,3.13,10.12
15.587938785552979,7.01,5.72,2.74,9.45
15.598495960235596,6.22,5.36,2.45,8.56
15.609182834625244,5.35,4.72,2.36,7.51
15.619475841522217,4.46,4.0,2.45,6.47
15.631155014038086,3.63,3.44,2.72,5.69
15.65507698059082,2.94,3.11,3.05,5.25
15.65779995918274,2.44,2.95,3.33,5.07
15.659559726715088,2.05,2.83,3.44,4.9
15.668627738952637,1.87,2.62,3.38,4.66
15.680360794067383,1.89,2.17,3.17,4.28
15.688782930374146,1.9,1.61,2.89,3.81
15.699522018432617,1.83,1.07,2.69,3.42
15.709228992462158,1.71,0.6,2.56,3.13
15.71982479095459,1.49,0.19,2.34,2.78
15.72934103012085,1.24,-0.13,2.02,2.37
15.758501052856445,1.07,-0.42,1.64,2.0
15.760583877563477,0.92,-0.71,1.18,1.65
15.762253761291504,0.78,-0.96,0.73,1.43
15.768970966339111,0.62,-1.05,0.36,1.27
15.77910590171814,0.42,-1.17,0.04,1.24
15.78902006149292,0.33,-1.37,-0.06,1.41
15.79960298538208,0.28,-1.58,-0.15,1.61
15.809696912765503,0.17,-1.83,-0.35,1.87
15.820024013519287,-0.13,-1.69,-0.78,1.86
15.83009672164917,-0.3,-1.94,-1.23,2.31
15.861579895019531,-0.2,-2.22,-0.82,2.37
15.863460063934326,-0.3,-2.16,-0.48,2.23
15.864765882492065,-0.49,-2.24,-0.51,2.34
15.86923885345459,-0.56,-2.37,-0.43,2.47
15.879654884338379,-0.59,-2.51,-0.3,2.59
15.890212059020996,-0.69,-2.56,-0.17,2.65
15.900753021240234,-0.8,-2.62,-0.03,2.73
15.91021990776062,-0.84,-2.72,0.16,2.85
15.920372009277344,-0.87,-2.82,0.34,2.97
15.930645942687988,-0.91,-3.0,0.47,3.17
15.956798076629639,-0.91,-3.23,0.55,3.4
15.959117889404297,-0.94,-3.53,0.51,3.68
15.960815906524658,-1.03,-3.85,0.42,4.0
15.970042943954468,-1.13,-4.12,0.39,4.28
15.980807781219482,-1.21,-4.4,0.4,4.58
15.990543842315674,-1.32,-4.65,0.37,4.84
16.000765800476074,-1.36,-4.93,0.33,5.12
16.010934829711914,-1.33,-5.25,0.32,5.42
16.020720958709717,-1.33,-5.57,0.3,5.73
16.031566858291626,-1.42,-5.72,0.29,5.9
16.059151887893677,-1.52,-5.71,0.33,5.91
16.061617851257324,-1.66,-5.66,0.39,5.91
16.063207864761353,-1.82,-5.6,0.48,5.9
16.07041072845459,-1.97,-5.52,0.57,5.88
16.08143377304077,-2.08,-5.43,0.66,5.85
16.090925931930542,-2.12,-5.38,0.71,5.82
16.10142493247986,-2.04,-5.46,0.74,5.87
16.111491918563843,-1.73,-5.68,0.7,5.97
16.121813774108887,-1.24,-6.15,0.66,6.3
16.132133960723877,-0.85,-6.56,0.57,6.63
16.159698963165283,-0.61,-6.57,0.49,6.61
16.16289186477661,-0.37,-6.34,0.42,6.36
16.165119886398315,-0.12,-6.06,0.26,6.06
16.170719861984253,0.09,-5.78,0.0,5.78
16.181411743164062,0.22,-5.55,-0.29,5.56
16.19163990020752,0.29,-5.42,-0.53,5.45
16.20192575454712,0.15,-5.21,-0.67,5.25
16.211960792541504,-0.2,-4.81,-0.62,4.85
16.222049951553345,-0.47,-4.45,-0.38,4.49
16.23240375518799,-0.49,-4.33,-0.06,4.35
16.26017189025879,-0.37,-4.32,0.18,4.33
16.26346492767334,-0.28,-4.19,0.28,4.2
16.265483856201172,-0.15,-4.07,0.32,4.08
16.271310806274414,0.01,-3.97,0.21,3.97
16.28201389312744,-0.05,-3.79,-0.03,3.79
16.2927508354187,-0.34,-3.58,-0.44,3.62
16.3022198677063,-0.75,-3.39,-0.86,3.57
16.312567949295044,-1.13,-3.21,-1.12,3.58
16.32292604446411,-1.49,-3.06,-1.32,3.65
16.33328104019165,-1.74,-3.0,-1.4,3.74
16.360142946243286,-1.8,-3.03,-1.37,3.78
16.362674951553345,-1.78,-3.01,-1.28,3.72
16.364773750305176,-1.71,-2.97,-1.04,3.58
16.37192988395691,-1.57,-2.87,-0.77,3.36
16.382592916488647,-1.41,-2.71,-0.53,3.1
16.393390893936157,-1.27,-2.5,-0.36,2.82
16.403332948684692,-1.2,-2.26,-0.19,2.56
16.413164854049683,-1.16,-1.96,0.01,2.27
16.42337393760681,-1.11,-1.67,0.19,2.01
16.433358907699585,-0.88,-1.46,0.29,1.72
16.459458827972412,-0.58,-1.33,0.36,1.49
16.461373805999756,-0.35,-1.12,0.41,1.24
16.463204860687256,-0.21,-0.82,0.55,1.0
16.47308087348938,0.03,-0.49,0.83,0.96
16.483670949935913,0.35,-0.1,1.14,1.19
16.493491888046265,0.72,0.3,1.36,1.56
16.50443387031555,1.15,0.63,1.53,2.01
16.51374888420105,1.67,0.93,1.62,2.5
16.52410888671875,2.26,1.25,1.62,3.04
16.534502029418945,2.76,1.58,1.56,3.54
16.564016819000244,3.11,1.9,1.5,3.94
16.566959857940674,3.35,2.1,1.43,4.2
16.56890106201172,3.48,2.29,1.35,4.37
16.58393692970276,3.49,2.58,1.3,4.53
16.58674907684326,3.46,2.96,1.29,4.73
16.59835195541382,3.48,3.28,1.28,4.95
16.604811906814575,3.52,3.53,1.23,5.13
16.61498785018921,3.57,3.65,1.2,5.24
16.62387490272522,3.49,3.8,1.19,5.29
16.63422393798828,3.38,4.06,1.31,5.44
16.662381887435913,3.38,4.35,1.55,5.72
16.66527795791626,3.37,4.65,1.74,6.0
16.667008876800537,3.39,4.89,1.83,6.22
16.683671951293945,3.42,5.05,1.91,6.39
16.68615984916687,3.46,5.17,1.95,6.51
16.696924924850464,3.51,5.33,2.0,6.68
16.705036878585815,3.57,5.53,2.03,6.88
16.71584701538086,3.81,5.66,2.01,7.11
16.724860906600952,4.05,5.74,1.96,7.29
16.735105991363525,4.3,5.84,1.86,7.48
16.7620849609375,4.59,5.88,1.72,7.65
16.764516830444336,5.01,5.66,1.58,7.72
16.76619577407837,5.57,5.14,1.43,7.71
16.78249192237854,6.01,4.61,1.37,7.69
16.784703731536865,6.37,4.31,1.35,7.8
16.797433853149414,6.84,4.24,1.45,8.17
16.80540895462036,7.47,4.35,1.73,8.81
16.81578493118286,8.12,4.57,2.06,9.54
16.825695037841797,8.63,4.86,2.3,10.16
16.835930824279785,8.84,5.13,2.39,10.49
16.862753868103027,8.73,5.3,2.34,10.47
16.865630865097046,8.48,5.27,2.13,10.2
16.867915868759155,8.15,4.94,1.82,9.7
16.88349676132202,7.59,4.41,1.44,8.89
16.885550022125244,6.76,3.85,1.05,7.85
16.897347927093506,5.62,3.38,0.72,6.59
16.906108856201172,4.41,3.05,0.57,5.39
16.916518926620483,3.28,2.8,0.69,4.36
16.92688798904419,2.46,2.6,0.98,3.71
16.936617851257324,1.9,2.23,1.42,3.25
16.963722944259644,1.54,1.65,1.93,2.96
16.96685290336609,1.34,1.06,2.48,3.01
16.969196796417236,1.17,0.5,3.0,3.25
16.982533931732178,1.0,-0.01,3.36,3.5
16.986268043518066,0.92,-0.46,3.5,3.64
16.99691390991211,0.91,-0.92,3.37,3.6
17.006847858428955,0.98,-1.38,3.14,3.56
17.017395973205566,1.04,-1.71,2.83,3.46
17.027687072753906,1.09,-1.92,2.35,3.22
17.03735876083374,1.23,-2.08,1.77,2.99
17.065176010131836,1.47,-2.21,1.2,2.91
17.06804895401001,1.66,-2.36,0.68,2.96
17.07032585144043,1.77,-2.53,0.25,3.09
17.082716941833496,1.77,-2.74,-0.01,3.26
17.087012767791748,1.68,-2.88,-0.05,3.33
17.098217010498047,1.55,-3.09,-0.01,3.45
17.107258796691895,1.38,-3.36,0.05,3.63
17.117718935012817,1.2,-3.66,0.16,3.85
17.12833285331726,0.95,-3.93,0.34,4.05
17.137840747833252,0.68,-4.13,0.63,4.23
17.166224002838135,0.41,-4.34,0.87,4.44
17.169623851776123,0.16,-4.56,0.99,4.66
17.171967029571533,-0.07,-4.86,1.07,4.97
17.18292474746704,-0.39,-5.18,1.18,5.32
17.18778085708618,-0.85,-5.43,1.28,5.64
17.19801378250122,-1.36,-5.66,1.36,5.97
17.207887887954712,-1.9,-5.84,1.38,6.29
17.21839475631714,-2.44,-5.9,1.3,6.51
17.228996753692627,-2.81,-5.91,0.96,6.61
17.23835802078247,-3.1,-5.99,0.49,6.76
17.26631784439087,-3.32,-6.15,0.17,6.99
17.269717931747437,-3.43,-6.35,0.04,7.21
17.272339820861816,-3.52,-6.48,-0.01,7.37
17.282899856567383,-3.51,-6.57,0.05,7.44
17.288135051727295,-3.47,-6.51,0.15,7.37
17.29851007461548,-3.35,-6.36,0.22,7.19
17.30848979949951,-3.28,-6.19,0.36,7.01
17.318827867507935,-3.25,-6.01,0.51,6.85
17.329280853271484,-3.21,-5.85,0.66,6.7
17.338878870010376,-3.1,-5.82,0.86,6.64
17.366271018981934,-2.85,-5.86,1.06,6.6
17.369577884674072,-2.37,-6.08,1.18,6.63
17.37190890312195,-1.64,-6.58,1.09,6.86
17.38317584991455,-0.99,-7.13,0.86,7.24
17.38896083831787,-0.64,-7.35,0.61,7.4
17.399101734161377,-0.39,-7.27,0.46,7.29
17.40992307662964,-0.28,-6.97,0.32,6.98
17.419456005096436,-0.26,-6.47,0.22,6.47
17.42965793609619,-0.06,-6.03,0.15,6.03
17.439921855926514,0.16,-5.77,0.13,5.77
17.46769094467163,0.24,-5.54,0.17,5.54
17.471048831939697,0.26,-5.27,0.25,5.28
17.47309684753418,0.26,-5.06,0.42,5.08
17.48296284675598,0.17,-4.92,0.7,4.97
17.48981785774231,0.01,-4.73,1.05,4.84
17.4997239112854,-0.11,-4.53,1.35,4.72
17.510036945343018,-0.12,-4.34,1.54,4.6
17.520343780517578,-0.01,-4.17,1.52,4.43
17.530088901519775,0.03,-3.96,1.25,4.15
17.540519952774048,-0.03,-3.76,0.84,3.85
17.570315837860107,-0.19,-3.58,0.36,3.6
17.57327699661255,-0.4,-3.47,-0.12,3.49
17.57515287399292,-0.62,-3.41,-0.55,3.5
17.583240032196045,-0.88,-3.37,-0.9,3.59
17.59040594100952,-1.15,-3.32,-1.16,3.7
17.60043692588806,-1.39,-3.3,-1.26,3.79
17.611281871795654,-1.58,-3.24,-1.18,3.79
17.620835781097412,-1.7,-3.17,-0.95,3.72
17.630940914154053,-1.61,-3.03,-0.69,3.49
17.64088487625122,-1.45,-2.84,-0.53,3.23
17.668336868286133,-1.26,-2.59,-0.37,2.9
17.670430898666382,-0.94,-2.32,-0.2,2.51
17.67166805267334,-0.63,-2.08,-0.13,2.17
17.682580947875977,-0.31,-1.85,-0.09,1.87
17.690486907958984,-0.15,-1.5,-0.07,1.5
17.701271057128906,0.18,-1.05,-0.05,1.06
17.711259841918945,0.69,-0.65,0.1,0.95
17.722232818603516,1.12,-0.18,0.37,1.19
17.732297897338867,1.51,0.36,0.67,1.69
17.74146604537964,1.79,0.91,0.98,2.23
17.767058849334717,2.1,1.36,1.08,2.72
17.769208908081055,2.4,1.73,0.99,3.11
17.770948886871338,2.67,2.0,0.87,3.44
17.783402919769287,2.88,2.23,0.73,3.71
17.790761947631836,3.15,2.45,0.59,4.03
17.801705837249756,3.42,2.6,0.46,4.32
17.81187677383423,3.62,2.81,0.43,4.6
17.821837902069092,3.75,3.13,0.36,4.89
17.832191944122314,3.82,3.48,0.22,5.17
17.842119932174683,3.89,3.66,0.33,5.35
17.872215747833252,3.94,3.84,0.45,5.52
17.875324726104736,3.88,4.06,0.64,5.65
17.8770170211792,3.78,4.23,0.94,5.75
17.881877899169922,3.71,4.34,1.33,5.86
17.89925789833069,3.57,4.48,1.78,5.99
17.902211904525757,3.4,4.59,2.2,6.12
17.914870738983154,3.29,4.68,2.54,6.25
17.92189884185791,3.17,4.78,2.82,6.39
17.932199954986572,3.06,4.9,3.03,6.52
17.942330837249756,3.04,5.08,3.17,6.71
17.969904899597168,3.1,5.27,3.22,6.91
17.971778869628906,3.24,5.39,3.13,7.02
17.973115921020508,3.45,5.42,2.94,7.06
17.98192596435547,3.84,5.3,2.75,7.09
17.992578983306885,4.39,4.91,2.6,7.08
18.003159046173096,5.04,4.4,2.48,7.13
18.012938976287842,5.59,3.93,2.35,7.22
18.02257204055786,6.1,3.7,2.32,7.5
18.03281593322754,6.58,3.67,2.51,7.94
18.04360294342041,6.91,4.01,2.78,8.45
18.071897983551025,7.17,4.57,2.94,8.99
18.074782848358154,7.3,5.07,2.97,9.37
18.076508045196533,7.14,5.6,2.86,9.51
18.082608938217163,6.77,5.92,2.65,9.37
18.093437910079956,6.33,5.95,2.4,9.01
18.10306692123413,5.87,5.71,2.3,8.5
18.11324191093445,5.42,5.24,2.42,7.91
18.123366832733154,4.87,4.75,2.74,7.33
18.133790969848633,4.34,4.33,3.13,6.88
18.144248008728027,3.92,3.88,3.42,6.48
18.173387050628662,3.5,3.48,3.57,6.09
18.175485849380493,3.18,3.11,3.63,5.74
18.177201747894287,2.96,2.68,3.56,5.34
18.183043003082275,2.68,2.24,3.37,4.85
18.197808742523193,2.37,1.81,3.2,4.37
18.20353078842163,2.09,1.41,3.09,3.98
18.213799953460693,1.84,1.06,2.98,3.65
18.22382402420044,1.71,0.69,2.8,3.35
18.23393678665161,1.72,0.24,2.57,3.1
18.244606971740723,1.73,-0.22,2.31,2.89
18.27286672592163,1.68,-0.64,2.07,2.74
18.27510976791382,1.51,-0.92,1.75,2.48
18.2768497467041,1.4,-1.16,1.44,2.31
18.28372287750244,1.43,-1.43,1.19,2.34
18.293821811676025,1.46,-1.66,0.86,2.37
18.304083824157715,1.36,-1.89,0.52,2.38
18.31458282470703,1.27,-2.04,0.3,2.42
18.324504852294922,1.22,-2.08,0.18,2.41
18.33466672897339,1.19,-2.16,0.05,2.46
18.34501886367798,1.13,-2.32,-0.01,2.58
18.373421907424927,1.05,-2.5,0.02,2.71
18.376075744628906,0.92,-2.66,0.13,2.81
18.377749919891357,0.74,-2.81,0.37,2.92
18.38451886177063,0.61,-3.03,0.59,3.14
18.397922039031982,0.46,-3.29,0.79,3.41
18.40492582321167,0.27,-3.55,0.98,3.69
18.415299892425537,0.06,-3.79,1.08,3.94
18.425885915756226,-0.17,-4.07,1.13,4.22
18.435405731201172,-0.43,-4.33,1.16,4.5
18.445793867111206,-0.63,-4.52,1.05,4.68
18.472747802734375,-0.78,-4.77,0.92,4.92
18.47568392753601,-1.0,-4.97,0.87,5.14
18.477931022644043,-1.11,-5.16,0.79,5.33
18.48488187789917,-1.22,-5.42,0.74,5.6
18.497777938842773,-1.36,-5.68,0.68,5.88
18.50526785850525,-1.55,-5.85,0.64,6.08
18.515670776367188,-1.79,-5.92,0.61,6.21
18.526140928268433,-2.0,-5.87,0.6,6.23
18.536499977111816,-2.22,-5.77,0.54,6.2
18.54644203186035,-2.39,-5.7,0.43,6.19
18.574971914291382,-2.5,-5.73,0.32,6.25
18.57836103439331,-2.59,-5.86,0.2,6.4
18.580126762390137,-2.66,-6.06,0.14,6.61
18.585464000701904,-2.72,-6.25,0.25,6.82
18.595600843429565,-2.55,-6.53,0.43,7.02
18.606472969055176,-1.95,-7.03,0.5,7.31
18.61739492416382,-1.13,-7.77,0.33,7.85
18.62635374069214,-0.57,-8.41,-0.08,8.42
18.636661052703857,-0.4,-8.62,-0.53,8.64
18.646719932556152,-0.61,-8.36,-0.8,8.42
18.674654960632324,-1.08,-7.72,-0.77,7.83
18.67812991142273,-1.34,-7.04,-0.56,7.18
18.680689811706543,-1.12,-6.68,-0.5,6.79
18.686332941055298,-0.69,-6.69,-0.62,6.75
18.696555852890015,-0.24,-6.72,-0.7,6.76
18.706422805786133,-0.03,-6.53,-0.53,6.55
18.71695375442505,0.02,-6.12,-0.13,6.12
18.727153778076172,-0.08,-5.47,0.38,5.48
18.737796783447266,-0.1,-4.74,0.77,4.8
18.749002933502197,0.1,-4.07,0.95,4.18
18.77487277984619,0.44,-3.56,0.96,3.71
18.778207778930664,0.84,-3.18,0.75,3.37
18.780075073242188,1.39,-3.0,0.37,3.32
18.786625862121582,1.82,-3.07,-0.25,3.57
18.797088861465454,1.84,-3.13,-1.03,3.77
18.80728793144226,1.51,-3.21,-1.63,3.9
18.81729793548584,0.94,-3.31,-2.06,4.01
18.827658891677856,0.24,-3.31,-2.4,4.09
18.837885856628418,-0.38,-3.27,-2.52,4.14
18.84792995452881,-0.79,-3.19,-2.56,4.16
18.87523603439331,-1.14,-3.02,-2.53,4.1
18.8786039352417,-1.37,-2.81,-2.43,3.95
18.880635738372803,-1.47,-2.63,-2.24,3.75
18.88721799850464,-1.36,-2.48,-1.95,3.43
18.89759588241577,-1.2,-2.36,-1.6,3.09
18.907811880111694,-1.06,-2.26,-1.2,2.76
18.917818069458008,-0.72,-1.99,-0.65,2.21
18.928482055664062,-0.23,-1.6,-0.14,1.62
18.938410758972168,0.21,-1.35,0.04,1.36
18.94841480255127,0.78,-1.17,0.01,1.4
18.976358890533447,1.18,-0.71,-0.06,1.37
18.979697942733765,1.19,-0.13,0.14,1.2
18.98240900039673,1.26,0.29,0.77,1.5
18.988123893737793,1.35,0.78,1.72,2.32
18.998071908950806,1.48,1.43,2.46,3.2
19.008492946624756,1.71,1.95,2.96,3.93
19.018654823303223,2.07,2.35,3.81,4.93
19.028892040252686,2.42,2.81,4.39,5.74
19.038870811462402,2.64,3.13,4.46,6.05
19.049142837524414,2.81,3.28,4.22,6.03
19.077542781829834,2.8,3.38,3.89,5.86
19.080020904541016,2.5,3.61,3.32,5.5
19.08185887336731,2.05,3.84,2.64,5.09
19.088561058044434,1.72,3.96,2.02,4.76
19.099300861358643,1.44,4.0,1.47,4.49
19.10910391807556,1.21,3.96,1.1,4.28
19.1193528175354,1.05,3.86,0.99,4.12
19.12942886352539,0.95,3.69,1.18,3.98
19.13943886756897,0.9,3.53,1.57,3.96
19.15006685256958,0.85,3.48,2.01,4.1
19.178425788879395,0.82,3.5,2.43,4.33
19.18173384666443,0.87,3.56,2.76,4.58
19.183557987213135,1.02,3.64,3.01,4.83
19.188666820526123,1.27,3.73,3.2,5.07
19.199365854263306,1.64,3.83,3.39,5.37
19.209694862365723,1.99,3.94,3.42,5.58
19.219709873199463,2.48,4.01,3.33,5.77
19.229948043823242,3.14,3.9,3.16,5.92
19.240099906921387,3.81,3.59,2.93,5.99
19.25041389465332,4.32,3.36,2.7,6.1
19.277957916259766,4.75,3.39,2.65,6.4
19.28111696243286,5.09,3.73,2.8,6.9
19.283201932907104,5.39,4.36,3.02,7.56
19.289254903793335,5.87,5.02,3.22,8.36
19.300029754638672,6.51,5.51,3.15,9.09
19.310678005218506,7.03,5.74,2.78,9.49
19.320361852645874,7.28,5.73,2.21,9.52
19.33047890663147,7.14,5.59,1.57,9.2
19.340730905532837,6.5,5.49,1.15,8.58
19.35093092918396,5.6,5.38,1.11,7.84
19.379787921905518,4.73,5.12,1.35,7.09
19.38222599029541,4.01,4.66,1.55,6.34
19.383853912353516,3.37,4.17,1.77,5.64
19.401485919952393,2.88,3.78,2.1,5.19
19.403925895690918,2.48,3.41,2.42,4.86
19.41517400741577,2.07,3.04,2.71,4.56
19.42117691040039,1.7,2.68,2.94,4.32
19.431015014648438,1.19,2.39,3.37,4.29
19.44136095046997,0.58,2.35,3.96,4.64
19.451504945755005,0.18,2.51,4.3,4.98
19.47958493232727,0.29,2.55,4.52,5.19
19.4825439453125,0.9,2.3,4.55,5.17
19.48449182510376,1.82,1.77,4.0,4.73
19.501649856567383,2.63,1.14,3.19,4.28
19.50407385826111,3.13,0.7,2.42,4.01
19.514630794525146,3.36,0.37,1.69,3.77
19.52159285545349,3.38,0.04,1.05,3.53
19.531662940979004,3.29,-0.29,0.54,3.34
19.54182481765747,3.19,-0.64,0.08,3.25
19.55216693878174,3.05,-0.99,-0.26,3.21
19.580703735351562,2.84,-1.33,-0.47,3.17
19.583586931228638,2.58,-1.6,-0.47,3.07
19.585612773895264,2.3,-1.86,-0.41,2.98
19.601600885391235,2.06,-2.1,-0.39,2.96
19.604093074798584,1.83,-2.38,-0.35,3.02
19.61787700653076,1.62,-2.77,-0.19,3.21
19.623167991638184,1.35,-3.14,-0.01,3.41
19.63163685798645,0.95,-3.47,0.17,3.6
19.64217185974121,0.49,-3.78,0.39,3.83
19.652325868606567,-0.01,-4.0,0.64,4.05
19.67617177963257,-0.49,-4.24,0.88,4.35
19.678020000457764,-0.88,-4.46,1.08,4.67
19.682304859161377,-1.25,-4.57,1.21,4.88
19.692226886749268,-1.54,-4.65,1.28,5.06
19.70284605026245,-1.71,-4.79,1.29,5.24
19.712727069854736,-1.77,-4.97,1.25,5.42
19.72320294380188,-1.75,-5.17,1.12,5.57
19.732805728912354,-1.72,-5.4,0.89,5.73
19.74278974533081,-1.72,-5.6,0.7,5.89
19.753429889678955,-1.75,-5.75,0.58,6.03
19.78241991996765,-1.8,-5.78,0.56,6.07
19.785099029541016,-1.94,-5.77,0.63,6.11
19.786728858947754,-2.16,-5.76,0.71,6.19
19.801076889038086,-2.33,-5.72,0.73,6.21
19.80364990234375,-2.43,-5.77,0.67,6.29
19.815810918807983,-2.45,-5.93,0.56,6.44
19.824142932891846,-2.21,-6.36,0.47,6.74
19.833291053771973,-1.6,-7.13,0.47,7.32
19.844231843948364,-0.97,-8.09,0.52,8.16
19.854015827178955,-0.6,-8.83,0.65,8.87
19.88207197189331,-0.41,-9.2,0.83,9.24
19.885424852371216,-0.37,-9.1,1.0,9.16
19.88776206970215,-0.56,-8.53,0.94,8.59
19.90126085281372,-0.9,-7.78,0.79,7.87
19.90437078475952,-1.18,-7.17,0.67,7.29
19.915914058685303,-1.39,-6.78,0.41,6.93
19.923994064331055,-1.56,-6.52,0.1,6.7
19.93487286567688,-1.46,-6.43,-0.08,6.59
19.94490385055542,-1.12,-6.39,-0.15,6.48
19.954628944396973,-0.62,-6.31,-0.27,6.34
19.982722759246826,-0.05,-6.23,-0.36,6.24
19.98613977432251,0.52,-6.17,-0.52,6.21
19.988629817962646,0.95,-6.13,-0.81,6.25
20.00108289718628,1.1,-6.1,-1.06,6.28
20.004467964172363,1.03,-5.96,-1.33,6.19
20.01574993133545,0.7,-5.7,-1.73,5.99
20.024611949920654,0.21,-5.44,-2.11,5.83
20.035298824310303,-0.34,-5.24,-2.36,5.75
20.04557991027832,-0.9,-5.01,-2.4,5.62
20.055080890655518,-1.51,-4.64,-2.25,5.37
20.082475900650024,-2.06,-4.16,-1.99,5.05
20.085457801818848,-2.31,-3.69,-1.55,4.62
20.087692737579346,-2.15,-3.26,-1.05,4.04
20.100968837738037,-1.82,-2.92,-0.58,3.48
20.104904890060425,-1.44,-2.53,-0.19,2.91
20.115976810455322,-1.09,-2.08,0.05,2.34
20.12534785270691,-0.83,-1.72,0.15,1.91
20.13560676574707,-0.58,-1.45,0.06,1.56
20.14591073989868,-0.32,-1.18,-0.07,1.22
20.155992031097412,-0.03,-0.85,-0.16,0.86
20.183385848999023,0.22,-0.42,-0.34,0.58
20.18634796142578,0.46,-0.11,-0.55,0.72
20.188642024993896,0.82,-0.01,-0.72,1.09
20.20069980621338,1.11,0.01,-0.54,1.23
20.20539903640747,1.3,0.17,0.05,1.31
20.216097831726074,1.39,0.34,0.77,1.62
20.225817918777466,1.37,0.64,1.22,1.94
20.23589277267456,1.4,0.88,1.35,2.13
20.246721744537354,1.55,1.07,1.35,2.31
20.256354808807373,1.78,1.32,1.38,2.61
20.283827781677246,2.04,1.58,1.44,2.95
20.28670072555542,2.32,1.77,1.47,3.26
20.28884983062744,2.66,1.94,1.49,3.61
20.301028728485107,3.02,2.09,1.57,3.99
20.306052923202515,3.37,2.24,1.69,4.38
20.316484928131104,3.58,2.48,1.84,4.72
20.326419830322266,3.72,2.77,2.01,5.05
20.33652091026306,3.79,3.12,2.07,5.32
20.34748601913452,3.84,3.39,2.13,5.54
20.35686492919922,3.9,3.52,2.2,5.69
20.384812831878662,3.85,3.6,2.28,5.74
20.38818073272705,3.69,3.71,2.42,5.76
20.390491008758545,3.55,3.81,2.68,5.85
20.401203870773315,3.48,3.92,2.94,6.01
20.40670084953308,3.44,4.13,3.18,6.24
20.41705584526062,3.4,4.34,3.4,6.47
20.42738389968872,3.54,4.53,3.62,6.79
20.43740701675415,3.73,4.71,3.79,7.1
20.447605848312378,3.94,4.92,3.88,7.4
20.457855939865112,4.35,4.95,3.9,7.65
20.485785961151123,4.97,4.66,3.85,7.82
20.489176750183105,5.43,4.2,3.77,7.83
20.491530895233154,5.51,3.94,3.89,7.81
20.50122594833374,5.45,4.17,4.19,8.04
20.50808095932007,5.44,4.67,4.48,8.45
20.517754077911377,5.71,5.3,4.72,9.1
20.527897834777832,6.18,5.98,4.77,9.83
20.5381178855896,6.52,6.57,4.43,10.26
20.548091888427734,6.75,6.91,3.8,10.38
20.558603763580322,6.88,6.87,3.05,10.18
20.588576793670654,6.9,6.45,2.47,9.76
20.591840744018555,6.65,5.77,2.24,9.08
20.594443798065186,5.85,5.18,2.18,8.11
20.599937915802002,4.88,4.79,2.2,7.18
20.60834288597107,4.15,4.48,2.21,6.49
20.61852788925171,3.59,4.31,2.1,5.98
20.628297805786133,3.28,4.12,1.93,5.6
20.638000965118408,3.26,3.67,1.75,5.21
20.648411750793457,3.29,3.06,1.57,4.75
20.658668994903564,3.1,2.54,1.5,4.27
20.684807777404785,2.74,2.29,1.68,3.94
20.687264919281006,2.36,2.15,1.92,3.72
20.688934803009033,2.09,1.99,2.09,3.56
20.699981927871704,1.96,1.76,2.13,3.38
20.70880389213562,1.95,1.47,2.13,3.24
20.718589782714844,1.98,1.12,2.1,3.09
20.728932857513428,2.01,0.79,2.04,2.97
20.73894691467285,1.97,0.41,1.94,2.79
20.749125003814697,1.93,0.01,1.76,2.61
20.75976800918579,1.94,-0.31,1.48,2.45
20.791361808776855,1.97,-0.59,1.13,2.34
20.794453859329224,2.09,-1.03,0.86,2.48
20.796331882476807,2.32,-1.43,0.67,2.8
20.799911975860596,2.42,-1.77,0.41,3.02
20.815364837646484,2.5,-2.05,0.08,3.23
20.81903386116028,2.57,-2.2,-0.31,3.39
20.83105492591858,2.56,-2.25,-0.61,3.46
20.839431762695312,2.53,-2.46,-0.79,3.61
20.84955596923828,2.38,-2.87,-0.93,3.84
20.860055923461914,2.0,-3.38,-0.96,4.04
20.88669776916504,1.38,-3.79,-0.73,4.09
20.88857388496399,0.63,-3.9,-0.3,3.96
20.890240907669067,-0.16,-3.9,0.18,3.9
20.90145993232727,-0.83,-3.88,0.49,3.99
20.909635066986084,-1.27,-3.9,0.64,4.15
20.91989803314209,-1.44,-4.04,0.68,4.34
20.93021297454834,-1.4,-4.33,0.68,4.6
20.94009304046631,-1.31,-4.64,0.61,4.85
20.950523853302002,-1.3,-4.9,0.54,5.09
20.960593938827515,-1.39,-5.06,0.52,5.27
20.98885679244995,-1.52,-5.15,0.56,5.39
20.991482734680176,-1.62,-5.16,0.72,5.45
20.99315881729126,-1.63,-5.14,0.93,5.47
21.000725746154785,-1.56,-5.07,0.98,5.39
21.010177850723267,-1.45,-4.94,0.87,5.22
21.02094078063965,-1.23,-4.88,0.64,5.07
21.03081488609314,-1.07,-4.85,0.37,4.98
21.04064702987671,-0.98,-4.84,0.12,4.93
21.051068782806396,-0.78,-5.07,-0.09,5.13
21.061359882354736,-0.42,-5.67,-0.32,5.69
21.089799880981445,-0.13,-6.38,-0.5,6.4
21.092494010925293,0.09,-7.13,-0.51,7.14
21.094210863113403,0.2,-7.86,-0.43,7.87
21.100550889968872,-0.06,-8.31,-0.36,8.31
21.111368894577026,-0.73,-8.23,-0.27,8.26
21.121357917785645,-1.5,-7.76,-0.15,7.9
21.13112497329712,-2.12,-7.24,-0.07,7.54
21.141329765319824,-2.41,-6.84,-0.13,7.25
21.15177893638611,-2.43,-6.54,-0.23,6.98
21.16200876235962,-2.18,-6.36,-0.31,6.73
21.19075894355774,-1.82,-6.28,-0.34,6.54
21.193647861480713,-1.6,-6.2,-0.3,6.41
21.196407794952393,-1.39,-6.12,-0.21,6.27
21.201746940612793,-1.07,-6.14,-0.16,6.23
21.215513944625854,-0.63,-6.24,-0.24,6.27
21.221677780151367,-0.25,-6.34,-0.41,6.35
21.232420921325684,0.02,-6.33,-0.56,6.35
21.242344856262207,0.13,-6.18,-0.68,6.21
21.252344846725464,0.02,-5.94,-0.84,5.99
21.26264190673828,-0.25,-5.63,-0.98,5.72
21.29165291786194,-0.56,-5.35,-1.12,5.49
21.294726848602295,-0.87,-5.13,-1.27,5.35
21.297075748443604,-1.13,-5.03,-1.38,5.33
21.301848888397217,-1.25,-5.01,-1.45,5.36
21.3159818649292,-1.33,-4.98,-1.54,5.37
21.322057723999023,-1.42,-4.92,-1.57,5.35
21.332729816436768,-1.43,-4.75,-1.5,5.18
21.34238576889038,-1.44,-4.49,-1.25,4.87
21.352630853652954,-1.48,-4.17,-0.93,4.52
21.36303186416626,-1.47,-3.79,-0.65,4.11
21.390803813934326,-1.41,-3.41,-0.42,3.71
21.393625736236572,-1.3,-3.05,-0.31,3.32
21.395691871643066,-1.15,-2.75,-0.28,2.99
21.402273893356323,-1.03,-2.45,-0.31,2.67
21.41572594642639,-0.88,-2.17,-0.29,2.35
21.42269277572632,-0.68,-1.87,-0.23,2.0
21.433104991912842,-0.33,-1.68,-0.16,1.71
21.443135738372803,0.24,-1.56,-0.09,1.58
21.453468799591064,0.78,-1.34,-0.04,1.55
21.463748931884766,1.3,-1.06,-0.06,1.67
21.491049766540527,1.85,-0.81,0.15,2.02
21.49368691444397,2.41,-0.59,0.45,2.52
21.49533700942993,2.85,-0.25,0.88,2.99
21.503378868103027,3.16,0.18,1.27,3.41
21.516386032104492,3.41,0.54,1.54,3.78
21.523273944854736,3.68,0.84,1.78,4.17
21.533602952957153,3.89,1.15,1.99,4.51
21.543935775756836,4.0,1.54,2.21,4.82
21.55405282974243,4.15,1.94,2.36,5.15
21.56434392929077,4.37,2.25,2.41,5.47
21.593562841415405,4.62,2.43,2.43,5.75
21.59673285484314,4.84,2.63,2.43,6.02
21.59820294380188,4.87,3.0,2.43,6.21
21.603431940078735,4.79,3.37,2.59,6.4
21.613804817199707,4.6,3.75,2.95,6.62
21.623884916305542,4.4,4.22,3.09,6.83
21.63415288925171,4.35,4.48,3.16,6.99
21.644893884658813,4.42,4.58,3.36,7.19
21.654327869415283,4.44,4.75,3.56,7.41
21.664533853530884,4.44,4.97,3.76,7.65
21.69206476211548,4.41,5.19,3.99,7.89
21.69540786743164,4.4,5.36,4.15,8.08
21.697370052337646,4.45,5.48,4.2,8.21
21.704025745391846,4.53,5.57,4.14,8.28
21.715590953826904,4.53,5.69,3.99,8.29
21.72442388534546,4.54,5.73,3.88,8.27
21.73487377166748,4.78,5.37,3.8,8.13
21.74554204940796,5.07,4.8,3.76,7.92
21.75537085533142,5.32,4.57,3.85,8.0
21.7653489112854,5.64,4.67,4.14,8.41
21.793237924575806,6.06,4.95,4.44,8.99
21.798101902008057,6.51,5.22,4.61,9.53
21.800450801849365,6.94,5.41,4.56,9.91
21.80465292930603,7.18,5.53,4.37,10.06
21.814899921417236,7.13,5.57,4.07,9.92
21.82523202896118,6.81,5.46,3.69,9.47
21.8354549407959,6.24,5.25,3.37,8.82
21.845964908599854,5.52,5.04,3.15,8.11
21.85555076599121,4.81,4.74,3.02,7.39
21.865976810455322,4.26,4.34,2.85,6.71
21.893889904022217,3.84,3.91,2.71,6.11
21.897629737854004,3.54,3.44,2.7,5.62
21.899436950683594,3.22,3.09,2.76,5.24
21.905431747436523,2.86,2.85,2.86,4.94
21.915730953216553,2.56,2.6,3.01,4.73
21.92576503753662,2.36,2.25,3.07,4.47
21.935847759246826,2.19,1.86,3.06,4.19
21.946363925933838,2.05,1.39,2.99,3.88
21.956419944763184,1.89,0.89,2.87,3.54
21.966470956802368,1.64,0.47,2.7,3.19
21.99438190460205,1.31,0.2,2.57,2.89
21.997663021087646,1.06,-0.02,2.45,2.66
22.000138759613037,0.97,-0.31,2.25,2.46
22.006085872650146,0.98,-0.69,2.01,2.34
22.01595187187195,1.05,-1.05,1.69,2.24
22.02636694908142,1.08,-1.33,1.38,2.19
22.036741733551025,1.07,-1.59,1.1,2.2
22.046738862991333,1.14,-1.83,0.83,2.31
22.057538986206055,1.18,-1.96,0.62,2.37
22.066693782806396,1.18,-2.16,0.42,2.49
22.09595775604248,1.22,-2.46,0.28,2.76
22.098644733428955,1.13,-2.71,0.15,2.93
22.10069990158081,0.97,-2.89,0.09,3.04
22.106664896011353,0.77,-2.99,0.01,3.08
22.11669683456421,0.48,-3.11,-0.07,3.14
22.127028942108154,0.26,-3.2,-0.05,3.21
22.137415885925293,0.1,-3.3,0.01,3.3
22.14732599258423,0.01,-3.46,0.09,3.46
22.157500743865967,-0.13,-3.62,0.2,3.62
22.168038845062256,-0.37,-3.74,0.35,3.77
22.198265075683594,-0.68,-3.76,0.5,3.85
22.200501918792725,-1.0,-3.8,0.63,3.97
22.20213294029236,-1.22,-3.91,0.71,4.15
22.218860864639282,-1.39,-4.14,0.78,4.43
22.22055196762085,-1.42,-4.43,0.84,4.72
22.232418060302734,-1.31,-4.78,0.85,5.02
22.237544059753418,-1.2,-5.11,0.82,5.31
22.24888277053833,-1.06,-5.38,0.77,5.53
22.257819890975952,-0.92,-5.66,0.74,5.78
22.268635749816895,-0.82,-5.84,0.73,5.94
22.29652190208435,-0.91,-5.87,0.72,5.98
22.2998628616333,-1.06,-5.78,0.76,5.92
22.302377939224243,-1.12,-5.67,0.89,5.84
22.307523727416992,-0.96,-5.73,0.96,5.88
22.31818985939026,-0.59,-6.04,0.93,6.13
22.328197956085205,-0.16,-6.5,0.77,6.54
22.33839988708496,0.03,-6.85,0.55,6.87
22.348317861557007,-0.1,-6.93,0.4,6.94
22.358994007110596,-0.32,-6.92,0.41,6.93
22.369308948516846,-0.65,-6.83,0.46,6.87
22.396667003631592,-1.0,-6.56,0.48,6.65
22.39948606491089,-1.28,-6.09,0.55,6.24
22.401107788085938,-1.36,-5.58,0.59,5.77
22.420197010040283,-1.43,-5.19,0.48,5.4
22.422703742980957,-1.58,-4.84,0.36,5.1
22.43355083465576,-1.63,-4.56,0.37,4.85
22.439087867736816,-1.47,-4.45,0.42,4.7
22.44890284538269,-1.21,-4.45,0.39,4.62
22.459537982940674,-0.88,-4.44,0.3,4.53
22.469481945037842,-0.46,-4.54,0.17,4.56
22.49759578704834,-0.05,-4.63,-0.01,4.63
22.50047206878662,0.19,-4.65,-0.25,4.66
22.502720832824707,0.31,-4.66,-0.56,4.7
22.520155906677246,0.22,-4.62,-0.94,4.71
22.5229549407959,-0.08,-4.51,-1.29,4.69
22.532548904418945,-0.48,-4.37,-1.54,4.65
22.539780855178833,-1.02,-4.19,-1.71,4.63
22.54958200454712,-1.61,-3.94,-1.72,4.59
22.55970788002014,-2.08,-3.67,-1.57,4.5
22.570303916931152,-2.46,-3.34,-1.4,4.37
22.598796844482422,-2.71,-2.98,-1.2,4.2
22.601823806762695,-2.69,-2.65,-0.98,3.9
22.604296922683716,-2.52,-2.37,-0.81,3.55
22.621176958084106,-2.39,-2.11,-0.74,3.27
22.626052856445312,-2.28,-1.88,-0.76,3.05
22.63398790359497,-2.19,-1.73,-0.83,2.91
22.640041828155518,-2.13,-1.61,-0.89,2.81
22.649934768676758,-2.06,-1.5,-0.93,2.71
22.660289764404297,-1.96,-1.38,-0.95,2.57
22.670320987701416,-1.8,-1.22,-0.89,2.34
22.69778084754944,-1.5,-1.06,-0.8,2.0
22.699955940246582,-1.24,-0.88,-0.67,1.66
22.701388835906982,-0.97,-0.6,-0.57,1.27
22.71881890296936,-0.53,-0.33,-0.48,0.78
22.72049379348755,-0.08,-0.1,-0.48,0.49
22.73265790939331,0.37,0.12,-0.38,0.54
22.741204738616943,0.78,0.38,-0.21,0.89
22.75076675415039,1.09,0.69,-0.01,1.29
22.760993003845215,1.33,0.98,0.25,1.67
22.771353721618652,1.53,1.24,0.39,2.0
22.798146724700928,1.7,1.46,0.49,2.29
22.80109691619873,1.88,1.69,0.57,2.59
22.803317070007324,2.07,1.89,0.57,2.86
22.820621967315674,2.4,1.94,0.47,3.12
22.82313585281372,2.83,1.84,0.28,3.38
22.833330869674683,3.24,1.59,0.11,3.61
22.84163475036621,3.45,1.24,0.13,3.66
22.851703882217407,3.31,1.02,0.45,3.49
22.8621768951416,2.89,1.04,0.94,3.21
22.8718478679657,2.45,1.09,1.44,3.04
22.898871898651123,2.15,1.17,2.03,3.17
22.901538848876953,2.02,1.36,2.59,3.55
22.903724908828735,2.11,1.62,3.02,4.02
22.91904878616333,2.4,1.94,3.44,4.62
22.92190384864807,2.92,2.27,3.69,5.22
22.9341459274292,3.65,2.62,3.69,5.81
22.942185878753662,4.51,2.82,3.58,6.41
22.952297925949097,5.49,2.86,3.37,7.04
22.962816953659058,6.47,2.82,3.18,7.74
22.97256898880005,7.45,2.78,3.09,8.53
23.000682830810547,8.23,3.03,3.05,9.28
23.00366187095642,8.84,3.57,3.03,10.0
23.006064891815186,9.24,4.26,2.98,10.6
23.01896905899048,9.28,5.22,2.81,11.01
23.022417068481445,8.92,6.23,2.47,11.15
23.033532857894897,8.32,6.83,2.17,10.98
23.042677879333496,7.66,6.86,2.01,10.47
23.053048849105835,6.91,6.41,1.95,9.62
23.063516855239868,5.94,5.7,2.07,8.48
23.073122024536133,4.7,5.17,2.43,7.39
23.101500988006592,3.45,4.89,2.86,6.63
23.104533910751343,2.44,4.67,3.33,6.23
23.106975078582764,1.74,4.5,3.69,6.07
23.11914086341858,1.33,4.3,3.87,5.93
23.123000860214233,1.23,4.01,3.96,5.76
23.13334083557129,1.27,3.61,3.92,5.47
23.143200874328613,1.31,3.25,3.73,5.11
23.153859853744507,1.26,2.94,3.51,4.74
23.163877964019775,1.08,2.65,3.16,4.26
23.17366886138916,0.89,2.41,2.69,3.71
23.201512813568115,0.66,2.21,2.26,3.22
23.204577922821045,0.44,2.0,1.85,2.75
23.20671272277832,0.26,1.75,1.45,2.28
23.21932291984558,0.15,1.45,1.08,1.81
23.223150730133057,0.15,1.08,0.83,1.37
23.233805894851685,0.19,0.67,0.68,0.97
23.244247913360596,0.3,0.35,0.6,0.75
23.254459857940674,0.35,0.16,0.44,0.58
23.264736890792847,0.45,-0.14,-0.06,0.47
23.27460479736328,0.74,-0.56,-0.33,0.98
23.30239772796631,0.98,-0.78,-0.43,1.32
23.305802822113037,1.04,-0.82,-0.64,1.47
23.30805778503418,1.03,-0.78,-0.93,1.59
23.31933307647705,1.12,-0.99,-1.05,1.82
23.324316024780273,1.19,-1.23,-0.93,1.94
23.334242820739746,1.15,-1.4,-0.86,2.0
23.34461498260498,1.06,-1.59,-0.74,2.04
23.35474991798401,0.85,-1.8,-0.49,2.05
23.365160942077637,0.61,-1.97,-0.26,2.07
23.374836921691895,0.38,-2.17,-0.07,2.2
23.402593851089478,0.19,-2.45,0.1,2.45
23.405483722686768,0.01,-2.78,0.14,2.78
23.40781307220459,-0.18,-3.14,0.22,3.15
23.41896891593933,-0.37,-3.44,0.34,3.47
23.42462992668152,-0.64,-3.67,0.5,3.75
23.434937000274658,-0.77,-3.88,0.68,4.01
23.444955825805664,-0.82,-4.12,0.8,4.27
23.455135822296143,-0.75,-4.26,0.8,4.39
23.46581792831421,-0.67,-4.36,0.74,4.47
23.475543975830078,-0.64,-4.45,0.61,4.53
23.501948833465576,-0.64,-4.56,0.52,4.63
23.504827976226807,-0.73,-4.6,0.54,4.68
23.507250785827637,-0.92,-4.58,0.61,4.71
23.519865036010742,-1.01,-4.65,0.74,4.81
23.525498867034912,-0.72,-4.94,0.82,5.05
23.535701751708984,-0.04,-5.51,0.68,5.55
23.546133041381836,0.37,-6.06,0.47,6.08
23.55582904815674,0.41,-6.23,0.36,6.25
23.566377878189087,0.31,-6.11,0.42,6.13
23.576108932495117,0.16,-5.9,0.47,5.92
23.604708909988403,0.04,-5.71,0.34,5.72
23.6077139377594,-0.19,-5.49,0.17,5.49
23.610363006591797,-0.43,-5.29,0.12,5.3
23.62067985534668,-0.74,-5.06,0.17,5.11
23.62543296813965,-1.07,-4.79,0.33,4.91
23.63616704940796,-1.2,-4.65,0.54,4.83
23.646376848220825,-1.11,-4.7,0.73,4.88
23.6563777923584,-0.77,-4.89,0.8,5.01
23.666337966918945,-0.38,-5.03,0.76,5.1
23.676995754241943,-0.04,-5.08,0.66,5.12
23.705675840377808,0.2,-5.06,0.38,5.07
23.708669900894165,0.23,-5.0,-0.14,5.0
23.71032476425171,0.03,-4.89,-0.65,4.93
23.717689037322998,-0.36,-4.73,-1.19,4.89
23.726661920547485,-0.83,-4.55,-1.6,4.89
23.73659586906433,-1.35,-4.44,-1.83,4.98
23.746973037719727,-1.87,-4.24,-1.96,5.03
23.756820917129517,-2.42,-3.98,-1.92,5.03
23.767282962799072,-2.8,-3.68,-1.79,4.95
23.777552843093872,-3.0,-3.41,-1.6,4.81
23.8056218624115,-3.04,-3.21,-1.41,4.64
23.808528900146484,-2.89,-3.07,-1.23,4.39
23.810128927230835,-2.72,-2.93,-1.05,4.13
23.81763792037964,-2.63,-2.79,-0.89,3.93
23.82750391960144,-2.58,-2.62,-0.81,3.76
23.837930917739868,-2.53,-2.47,-0.82,3.62
23.84745979309082,-2.47,-2.37,-0.9,3.53
23.857393741607666,-2.38,-2.3,-0.99,3.45
23.867852926254272,-2.27,-2.16,-1.02,3.29
23.878283977508545,-2.08,-2.0,-0.93,3.03
23.90729594230652,-1.79,-1.83,-0.79,2.67
23.910181045532227,-1.52,-1.61,-0.69,2.31
23.912091732025146,-1.1,-1.37,-0.56,1.84
23.918307781219482,-0.55,-1.19,-0.51,1.4
23.927777767181396,-0.02,-1.02,-0.51,1.14
23.938341856002808,0.44,-0.79,-0.46,1.01
23.94839096069336,0.87,-0.57,-0.34,1.09
23.958484888076782,1.24,-0.32,-0.23,1.3
23.968730926513672,1.58,0.06,-0.21,1.59
23.978440761566162,1.94,0.46,-0.15,1.99
24.009930849075317,2.2,0.83,-0.16,2.35
24.013234853744507,2.33,1.18,-0.33,2.63
24.015740871429443,2.34,1.44,-0.58,2.8
24.01808190345764,2.26,1.65,-0.8,2.91
24.03330707550049,2.15,1.8,-0.95,2.96
24.038026809692383,2.02,1.85,-1.05,2.93
24.049166917800903,1.87,1.79,-1.01,2.77
24.05832290649414,1.73,1.66,-0.71,2.5
24.06864881515503,1.65,1.61,-0.29,2.32
24.07878875732422,1.74,1.64,0.11,2.39
24.106611728668213,2.03,1.68,0.53,2.68
24.108458995819092,2.36,1.78,0.88,3.08
24.110111951828003,2.65,2.06,1.24,3.57
24.118536949157715,2.93,2.42,1.59,4.11
24.129179000854492,3.17,2.79,1.85,4.61
24.139267921447754,3.56,3.07,2.05,5.12
24.1492018699646,4.13,3.14,2.17,5.62
24.159157752990723,4.86,2.92,2.25,6.09
24.169379949569702,5.51,2.62,2.34,6.53
24.180095911026,5.91,2.56,2.59,6.94
24.209364891052246,6.07,2.75,3.0,7.3
24.212339878082275,6.08,3.11,3.46,7.65
24.214043855667114,6.04,3.65,3.83,8.02
24.218958854675293,5.96,4.3,4.11,8.42
24.233547925949097,5.95,4.76,4.42,8.8
24.23972487449646,6.03,4.93,4.71,9.1
24.249931812286377,6.02,4.84,4.92,9.15
24.259911060333252,5.84,4.56,5.12,9.0
24.270288944244385,5.45,4.32,5.41,8.81
24.28053379058838,4.85,4.2,5.66,8.55
24.309659957885742,4.25,4.17,5.78,8.29
24.312981843948364,3.77,4.2,5.68,8.0
24.315598011016846,3.39,4.25,5.53,7.75
24.319572925567627,3.14,4.27,5.4,7.56
24.33376407623291,2.97,4.18,5.15,7.26
24.340270042419434,2.75,4.03,4.83,6.86
24.35069990158081,2.37,3.89,4.54,6.43
24.360813856124878,1.98,3.74,4.27,6.01
24.37086296081543,1.7,3.49,3.96,5.54
24.380921840667725,1.47,3.15,3.61,5.01
24.410247802734375,1.35,2.8,3.23,4.48
24.413372039794922,1.32,2.42,2.8,3.92
24.416071891784668,1.31,2.05,2.36,3.38
24.420526027679443,1.3,1.7,1.95,2.89
24.43375301361084,1.21,1.43,1.57,2.44
24.440783977508545,1.12,1.18,1.28,2.07
24.45130681991577,1.0,0.98,1.06,1.75
24.460912942886353,0.86,0.8,0.86,1.45
24.4714298248291,0.75,0.6,0.69,1.18
24.481619834899902,0.76,0.35,0.53,0.99
24.51074504852295,0.75,0.07,0.38,0.84
24.513864040374756,0.7,-0.22,0.25,0.77
24.51698589324951,0.61,-0.51,0.16,0.81
24.52074384689331,0.47,-0.78,0.13,0.91
24.530993938446045,0.34,-0.99,0.12,1.05
24.541050910949707,0.22,-1.17,0.1,1.19
24.551726818084717,0.12,-1.35,0.08,1.35
24.561821937561035,0.08,-1.52,0.01,1.52
24.57169485092163,0.02,-1.67,-0.1,1.67
24.582469940185547,-0.01,-1.8,-0.19,1.81
24.61129593849182,-0.07,-1.95,-0.24,1.96
24.613667964935303,-0.06,-2.14,-0.22,2.15
24.615444898605347,-0.01,-2.39,-0.12,2.39
24.621623992919922,0.12,-2.71,-0.03,2.71
24.63235592842102,0.33,-3.1,0.03,3.11
24.642175912857056,0.57,-3.5,0.1,3.54
24.652456760406494,0.78,-3.85,0.15,3.93
24.663089752197266,0.86,-4.14,0.16,4.23
24.672446727752686,0.81,-4.31,0.16,4.38
24.68285584449768,0.61,-4.32,0.22,4.36
24.711313724517822,0.31,-4.24,0.28,4.26
24.71450185775757,-0.07,-4.08,0.3,4.09
24.71610188484192,-0.34,-4.07,0.33,4.09
24.721961975097656,-0.39,-4.23,0.44,4.27
24.732468843460083,-0.15,-4.67,0.53,4.7
24.742602825164795,0.35,-5.43,0.48,5.46
24.752559900283813,0.7,-6.18,0.33,6.22
24.763425827026367,0.55,-6.53,0.24,6.55
24.772922039031982,-0.06,-6.31,0.36,6.32
24.783318042755127,-1.08,-5.69,0.68,5.83
24.811691761016846,-1.99,-5.05,0.74,5.47
24.815095901489258,-2.57,-4.54,0.73,5.26
24.8177547454834,-2.86,-4.25,0.66,5.16
24.82255792617798,-2.93,-4.09,0.47,5.05
24.833337783813477,-2.78,-4.11,0.39,4.97
24.843063831329346,-2.21,-4.39,0.51,4.94
24.854490756988525,-1.34,-4.85,0.55,5.06
24.864011764526367,-0.45,-5.32,0.48,5.36
24.87382698059082,0.39,-5.73,0.3,5.75
24.88395881652832,1.11,-5.96,-0.01,6.06
24.911849975585938,1.57,-5.98,-0.44,6.19
24.91530179977417,1.71,-5.8,-0.93,6.11
24.91706085205078,1.54,-5.49,-1.5,5.89
24.923161029815674,1.13,-5.13,-2.02,5.62
24.933562755584717,0.55,-4.86,-2.44,5.46
24.943864822387695,-0.24,-4.71,-2.8,5.48
24.953776836395264,-1.1,-4.61,-2.88,5.54
24.96435785293579,-1.93,-4.52,-2.65,5.58
24.974108934402466,-2.64,-4.36,-2.23,5.56
24.984423875808716,-3.14,-4.26,-1.77,5.58
25.012078762054443,-3.47,-4.15,-1.45,5.6
25.015594005584717,-3.69,-3.98,-1.18,5.55
25.017372846603394,-3.78,-3.77,-0.98,5.42
25.02375888824463,-3.83,-3.55,-0.9,5.29
25.03404688835144,-3.87,-3.35,-0.91,5.19
25.04414391517639,-3.87,-3.19,-1.03,5.11
25.054364919662476,-3.81,-3.05,-1.12,5.0
25.064594745635986,-3.59,-2.9,-1.14,4.75
25.074968814849854,-3.27,-2.72,-1.1,4.39
25.085134029388428,-2.87,-2.56,-0.96,3.96
25.113139867782593,-2.43,-2.37,-0.76,3.47
25.11626386642456,-2.03,-2.18,-0.61,3.04
25.11894702911377,-1.59,-1.95,-0.5,2.56
25.124621868133545,-1.08,-1.75,-0.45,2.1
25.134530067443848,-0.53,-1.6,-0.39,1.73
25.145033836364746,-0.06,-1.38,-0.3,1.41
25.155168056488037,0.34,-1.14,-0.13,1.19
25.16534686088562,0.76,-0.88,0.1,1.16
25.17575979232788,1.08,-0.57,0.3,1.25
25.185674905776978,1.31,-0.25,0.49,1.42
25.214262008666992,1.5,0.07,0.66,1.64
25.217050075531006,1.7,0.38,0.89,1.95
25.219159841537476,1.92,0.66,1.09,2.3
25.22520399093628,2.1,0.93,1.24,2.61
25.2352237701416,2.27,1.16,1.39,2.9
25.245619773864746,2.44,1.39,1.52,3.19
25.255902767181396,2.59,1.58,1.63,3.44
25.265978813171387,2.76,1.7,1.76,3.68
25.275843858718872,3.03,1.84,1.89,4.01
25.286564826965332,3.37,2.0,1.81,4.31
25.314774990081787,3.64,2.22,1.62,4.56
25.31754994392395,3.85,2.49,1.49,4.82
25.31951379776001,3.97,2.83,1.46,5.08
25.337838888168335,4.08,3.17,1.49,5.37
25.340249061584473,4.21,3.53,1.52,5.7
25.351162910461426,4.32,3.86,1.56,5.99
25.35627293586731,4.4,4.18,1.56,6.26
25.36683177947998,4.56,4.4,1.62,6.54
25.3768367767334,4.95,4.32,1.71,6.78
25.387206077575684,5.42,3.93,1.75,6.91
25.415916919708252,5.72,3.55,1.82,6.97
25.418838024139404,5.79,3.48,1.93,7.02
25.42096185684204,5.88,3.66,2.19,7.26
25.437177896499634,6.08,3.96,2.45,7.65
25.439971923828125,6.29,4.25,2.63,8.03
25.451313972473145,6.49,4.47,2.77,8.35
25.456992864608765,6.58,4.64,2.87,8.54
25.467697858810425,6.42,4.8,2.95,8.54
25.47748589515686,5.92,4.99,3.02,8.31
25.48780393600464,5.25,5.25,3.18,8.07
25.516429901123047,4.72,5.39,3.32,7.89
25.519343852996826,4.36,5.35,3.34,7.66
25.521679878234863,4.04,5.25,3.35,7.42
25.537734031677246,3.76,5.17,3.46,7.26
25.540135860443115,3.46,5.15,3.6,7.17
25.55101203918457,3.23,5.07,3.72,7.06
25.55756187438965,3.05,4.8,3.79,6.83
25.567513942718506,2.81,4.49,3.76,6.49
25.5779447555542,2.6,4.12,3.66,6.09
25.588077068328857,2.45,3.7,3.45,5.62
25.61833381652832,2.36,3.26,3.11,5.08
25.62217092514038,2.3,2.79,2.75,4.54
25.62372875213623,2.22,2.36,2.33,3.99
25.636046886444092,2.22,1.94,1.92,3.51
25.637685775756836,2.24,1.55,1.52,3.11
25.65111780166626,2.23,1.22,1.19,2.8
25.657968997955322,2.15,0.89,0.9,2.49
25.668179988861084,2.09,0.57,0.67,2.26
25.678125858306885,1.98,0.25,0.51,2.05
25.68861675262451,1.73,0.07,0.37,1.77
25.717257022857666,1.49,-0.13,0.3,1.52
25.720051765441895,1.37,-0.48,0.26,1.47
25.722059726715088,1.19,-0.84,0.21,1.47
25.737545013427734,0.91,-1.15,0.16,1.47
25.739811897277832,0.69,-1.44,0.23,1.61
25.75127077102661,0.54,-1.72,0.38,1.84
25.758619785308838,0.38,-2.0,0.52,2.1
25.76878595352173,0.19,-2.29,0.68,2.39
25.779335975646973,-0.01,-2.57,0.8,2.69
25.78928804397583,-0.19,-2.84,0.91,2.98
25.817574977874756,-0.38,-3.1,0.99,3.27
25.82012176513672,-0.62,-3.27,0.99,3.47
25.821630001068115,-0.89,-3.3,0.97,3.55
25.83671474456787,-0.99,-3.3,0.9,3.56
25.83910894393921,-0.98,-3.35,0.72,3.56
25.851470947265625,-0.94,-3.5,0.42,3.64
25.859405994415283,-0.88,-3.77,0.13,3.87
25.87004804611206,-0.85,-4.16,-0.09,4.24
25.879621028900146,-0.91,-4.52,-0.17,4.61
25.889677047729492,-1.06,-4.8,-0.14,4.91
25.916680812835693,-1.27,-4.92,-0.07,5.08
25.91956901550293,-1.5,-4.92,0.05,5.14
25.92166495323181,-1.69,-4.88,0.23,5.16
25.937060832977295,-1.77,-4.82,0.4,5.15
25.939979076385498,-1.79,-4.66,0.52,5.01
25.952523946762085,-1.75,-4.43,0.64,4.8
25.96028995513916,-1.32,-4.29,0.89,4.57
25.97033977508545,-0.4,-4.5,1.09,4.64
25.9806809425354,0.52,-4.92,1.04,5.05
25.99057102203369,1.02,-5.06,0.93,5.24
26.019312858581543,1.18,-4.87,0.98,5.1
26.022652864456177,1.08,-4.59,1.07,4.83
26.02511501312256,0.63,-4.33,1.05,4.49
26.03706407546997,0.06,-4.19,0.91,4.28
26.040287017822266,-0.44,-4.11,0.69,4.19
26.051838874816895,-0.82,-4.17,0.49,4.27
26.060869932174683,-1.33,-4.22,0.26,4.43
26.07091999053955,-1.92,-4.11,0.11,4.53
26.081387996673584,-2.18,-4.01,0.07,4.56
26.091012954711914,-1.92,-4.19,0.06,4.6
26.118613958358765,-1.33,-4.59,0.03,4.77
26.121798038482666,-0.69,-4.95,-0.05,4.99
26.124127864837646,-0.08,-5.17,-0.04,5.17
26.137601852416992,0.37,-5.33,0.04,5.34
26.140947818756104,0.53,-5.42,0.0,5.44
26.153897762298584,0.44,-5.44,-0.1,5.45
26.16146492958069,-0.05,-5.37,-0.16,5.37
26.171129941940308,-0.65,-5.28,-0.01,5.31
26.181804895401,-1.03,-5.24,0.32,5.34
26.191207885742188,-1.38,-5.23,0.7,5.45
26.218317985534668,-1.79,-5.08,1.04,5.48
26.220659732818604,-2.19,-4.87,1.23,5.47
26.222327947616577,-2.45,-4.71,1.16,5.43
26.236748933792114,-2.7,-4.56,0.79,5.35
26.24124789237976,-2.98,-4.2,0.18,5.15
26.251558780670166,-3.2,-3.78,-0.51,4.97
26.261831760406494,-3.33,-3.37,-1.25,4.89
26.271832942962646,-3.54,-2.94,-1.94,4.99
26.28172993659973,-3.68,-2.6,-2.36,5.08
26.292136907577515,-3.78,-2.26,-2.42,5.02
26.31886577606201,-3.72,-1.82,-2.57,4.87
26.321831941604614,-3.48,-1.65,-2.39,4.53
26.323972940444946,-3.0,-1.59,-1.91,3.89
26.337255001068115,-2.54,-1.51,-1.37,3.25
26.341867923736572,-2.14,-1.37,-0.94,2.7
26.352333068847656,-1.8,-1.31,-0.63,2.31
26.362483024597168,-1.51,-1.23,-0.54,2.02
26.372802734375,-1.2,-1.09,-0.67,1.75
26.38301706314087,-0.8,-0.98,-0.71,1.45
26.39284372329712,-0.37,-0.78,-0.7,1.11
26.41966199874878,0.03,-0.56,-0.61,0.82
26.422582864761353,0.45,-0.25,-0.52,0.73
26.424771785736084,1.01,-0.03,-0.26,1.04
26.43713092803955,1.51,0.24,0.04,1.52
26.44244384765625,1.87,0.59,0.25,1.97
26.452829837799072,2.11,0.95,0.48,2.36
26.463104724884033,2.37,1.25,0.77,2.78
26.47371196746826,2.64,1.49,1.09,3.22
26.483582019805908,2.85,1.73,1.37,3.6
26.493364810943604,2.94,2.0,1.58,3.89
26.521196842193604,3.01,2.26,1.72,4.13
26.524497032165527,3.12,2.43,1.76,4.32
26.526631832122803,3.35,2.51,1.7,4.51
26.537046909332275,3.76,2.46,1.58,4.76
26.543500900268555,4.22,2.4,1.47,5.07
26.553431034088135,4.41,2.46,1.43,5.24
26.563885927200317,4.4,2.73,1.56,5.4
26.573848724365234,4.27,3.16,1.77,5.59
26.58412790298462,4.18,3.62,1.96,5.86
26.594122886657715,4.29,3.96,2.13,6.21
26.623349905014038,4.65,4.06,2.21,6.55
26.62854790687561,5.31,3.84,2.15,6.89
26.630688905715942,5.96,3.45,2.01,7.17
26.63603186607361,6.32,3.29,1.92,7.37
26.643660068511963,6.65,3.39,1.85,7.69
26.653801918029785,6.93,3.77,1.86,8.1
26.66429090499878,6.88,4.4,1.85,8.37
26.674524784088135,6.65,5.13,1.81,8.59
26.685157775878906,6.4,5.67,1.72,8.72
26.694952964782715,6.23,5.81,1.65,8.67
26.72412085533142,6.0,5.61,1.63,8.37
26.726515769958496,5.67,5.31,1.86,7.98
26.728193759918213,5.29,5.05,2.35,7.68
26.735729932785034,4.95,4.76,2.87,7.44
26.744606971740723,4.63,4.5,3.38,7.28
26.75448179244995,4.31,4.41,3.63,7.15
26.76486873626709,3.99,4.32,3.59,6.88
26.774898052215576,3.63,4.12,3.47,6.49
26.785319805145264,3.27,3.9,3.23,6.02
26.79517889022827,2.85,3.62,3.03,5.51
26.824552059173584,2.35,3.36,3.08,5.12
26.827398777008057,1.88,3.17,2.93,4.7
26.829219818115234,1.51,2.96,2.85,4.37
26.83641290664673,1.41,2.66,2.68,4.03
26.844971895217896,1.47,2.27,2.35,3.58
26.855373859405518,1.51,1.88,1.98,3.12
26.865025997161865,1.51,1.57,1.65,2.73
26.875550746917725,1.43,1.31,1.37,2.37
26.887033939361572,1.29,1.02,1.11,1.98
26.896295070648193,1.08,0.78,0.9,1.6
26.924425840377808,0.88,0.56,0.69,1.25
26.927021980285645,0.74,0.3,0.51,0.94
26.928658962249756,0.61,-0.04,0.33,0.69
26.935744762420654,0.45,-0.33,0.12,0.57
26.9460768699646,0.24,-0.53,-0.11,0.59
26.955829858779907,0.04,-0.81,-0.38,0.89
26.966224908828735,-0.13,-1.13,-0.52,1.25
26.97599172592163,-0.28,-1.37,-0.51,1.48
26.986385822296143,-0.45,-1.54,-0.44,1.66
26.99693989753723,-0.65,-1.72,-0.31,1.86
27.025609016418457,-0.79,-1.9,-0.18,2.06
27.028449058532715,-0.81,-2.06,-0.02,2.21
27.030168056488037,-0.81,-2.2,0.22,2.35
27.03598976135254,-0.84,-2.33,0.4,2.5
27.0465087890625,-0.89,-2.48,0.5,2.68
27.056318759918213,-1.0,-2.6,0.53,2.83
27.066865921020508,-1.12,-2.61,0.62,2.9
27.076539039611816,-1.16,-2.59,0.71,2.92
27.086989879608154,-1.17,-2.71,0.73,3.04
27.09763193130493,-1.01,-2.98,0.68,3.21
27.12581992149353,-0.75,-3.33,0.63,3.47
27.1286358833313,-0.51,-3.65,0.66,3.74
27.13127589225769,-0.28,-3.95,0.69,4.01
27.13654589653015,-0.16,-4.17,0.73,4.23
27.146453857421875,-0.16,-4.23,0.91,4.32
27.157120943069458,-0.22,-4.14,1.07,4.28
27.16723394393921,-0.34,-3.95,1.17,4.13
27.17735481262207,-0.19,-3.84,1.21,4.03
27.187479972839355,0.39,-4.04,1.12,4.21
27.19840097427368,1.22,-4.71,0.91,4.94
27.226120948791504,1.77,-5.43,0.6,5.74
27.2291419506073,1.71,-5.69,0.33,5.95
27.230933904647827,1.32,-5.49,0.36,5.65
27.236906051635742,0.86,-5.09,0.59,5.19
27.24775791168213,0.42,-4.65,0.8,4.73
27.257580757141113,0.07,-4.17,0.9,4.26
27.267892837524414,-0.25,-3.67,0.82,3.76
27.27779793739319,-0.53,-3.32,0.66,3.42
27.2882559299469,-0.67,-3.13,0.54,3.24
27.29844379425049,-0.7,-3.15,0.49,3.26
27.326467037200928,-0.72,-3.23,0.46,3.34
27.329221725463867,-0.6,-3.42,0.48,3.5
27.331510066986084,-0.33,-3.67,0.52,3.72
27.33753490447998,-0.01,-3.97,0.54,4.0
27.351634979248047,0.32,-4.28,0.5,4.32
27.35840392112732,0.55,-4.56,0.31,4.6
27.368474006652832,0.53,-4.8,-0.03,4.82
27.378609895706177,0.28,-4.92,-0.44,4.94
27.388893842697144,-0.16,-4.91,-0.88,4.99
27.398987770080566,-0.66,-4.86,-1.27,5.06
27.426948070526123,-1.29,-4.78,-1.62,5.2
27.429563999176025,-2.04,-4.61,-1.84,5.36
27.43129301071167,-2.75,-4.33,-1.83,5.44
27.43837285041809,-3.38,-4.01,-1.64,5.49
27.451900005340576,-3.88,-3.68,-1.31,5.5
27.459027767181396,-4.12,-3.37,-0.94,5.4
27.469007968902588,-4.15,-3.15,-0.69,5.25
27.478858947753906,-4.11,-2.98,-0.53,5.1
27.489383935928345,-4.09,-2.84,-0.42,4.99
27.499550819396973,-4.07,-2.72,-0.39,4.91
27.52808690071106,-4.1,-2.6,-0.55,4.88
27.53127384185791,-4.11,-2.48,-0.85,4.87
27.533891916275024,-3.99,-2.41,-1.08,4.78
27.538748741149902,-3.83,-2.33,-1.17,4.63
27.552370071411133,-3.6,-2.17,-1.14,4.35
27.55949091911316,-3.26,-2.06,-0.95,3.97
27.569568872451782,-2.81,-1.97,-0.73,3.5
27.58016300201416,-2.31,-1.83,-0.57,3.0
27.589831829071045,-1.79,-1.66,-0.51,2.49
27.600815773010254,-1.13,-1.49,-0.44,1.92
27.633455753326416,-0.4,-1.34,-0.45,1.46
27.635729789733887,0.3,-1.13,-0.59,1.3
27.63688087463379,0.89,-0.83,-0.78,1.44
27.639090061187744,1.33,-0.43,-0.96,1.69
27.649037837982178,1.71,-0.1,-1.11,2.04
27.659639835357666,2.08,0.15,-1.06,2.33
27.669668912887573,2.4,0.37,-0.72,2.53
27.680083751678467,2.57,0.65,-0.16,2.65
27.690406799316406,2.62,0.97,0.42,2.82
27.700536727905273,2.61,1.24,0.95,3.04
27.726844787597656,2.61,1.37,1.44,3.28
27.72940993309021,2.68,1.35,1.85,3.52
27.731170892715454,2.88,1.23,2.2,3.82
27.740005016326904,3.11,1.11,2.48,4.12
27.750685930252075,3.17,1.16,2.65,4.29
27.760581016540527,3.12,1.41,2.76,4.39
27.770673751831055,3.12,1.76,2.81,4.55
27.780850887298584,3.13,2.09,2.8,4.69
27.791297912597656,3.12,2.45,2.7,4.79
27.801307916641235,3.14,2.81,2.5,4.89
27.82921075820923,3.2,3.07,2.23,4.96
27.832512855529785,3.38,3.12,1.98,5.0
27.835247039794922,3.81,2.76,1.77,5.02
27.840515851974487,4.22,2.15,1.64,5.01
27.851250886917114,4.45,1.83,1.71,5.1
27.86084485054016,4.46,1.91,1.98,5.24
27.871706008911133,4.43,2.24,2.35,5.49
27.881556034088135,4.54,2.82,2.77,6.01
27.891783952713013,4.7,3.51,3.06,6.61
27.90348792076111,4.96,4.08,3.27,7.2
27.929568767547607,5.3,4.46,3.39,7.71
27.932940006256104,5.45,4.81,3.5,8.06
27.93463706970215,5.33,5.15,3.59,8.23
27.940736770629883,5.08,5.39,3.64,8.25
27.95165205001831,4.84,5.51,3.63,8.18
27.96169686317444,4.53,5.44,3.5,7.89
27.97167682647705,4.13,5.24,3.36,7.47
27.98233699798584,3.64,4.96,3.4,7.02
27.99199390411377,3.13,4.66,3.51,6.62
28.00216794013977,2.62,4.32,3.51,6.15
28.03029489517212,2.19,3.98,3.43,5.69
28.033713817596436,1.79,3.65,3.34,5.26
28.03616189956665,1.37,3.37,3.23,4.86
28.04192590713501,0.95,3.16,3.11,4.53
28.05204486846924,0.6,3.02,2.92,4.24
28.062464952468872,0.37,2.83,2.65,3.89
28.072638988494873,0.29,2.56,2.32,3.46
28.082794904708862,0.29,2.31,1.88,2.99
28.09308385848999,0.34,2.11,1.4,2.55
28.102999925613403,0.38,1.96,0.9,2.18
28.131932735443115,0.37,1.79,0.43,1.87
28.134605884552002,0.33,1.59,0.07,1.62
28.136497974395752,0.28,1.35,-0.15,1.38
28.14224672317505,0.18,1.11,-0.28,1.15
28.152729988098145,0.1,0.83,-0.36,0.91
28.162921905517578,0.02,0.53,-0.33,0.62
28.173195838928223,-0.06,0.25,-0.28,0.38
28.183693885803223,-0.13,0.01,-0.24,0.27
28.193246841430664,-0.19,-0.21,-0.21,0.35
28.203613758087158,-0.26,-0.42,-0.1,0.5
28.232483863830566,-0.3,-0.56,0.04,0.63
28.235816955566406,-0.27,-0.69,0.19,0.76
28.237785816192627,-0.18,-0.91,0.33,0.98
28.24250602722168,-0.05,-1.16,0.45,1.24
28.2531099319458,0.05,-1.36,0.54,1.46
28.263559818267822,0.04,-1.49,0.59,1.6
28.273451805114746,-0.09,-1.6,0.62,1.71
28.28392505645752,-0.22,-1.75,0.63,1.87
28.293931007385254,-0.35,-2.0,0.65,2.13
28.30415987968445,-0.5,-2.27,0.71,2.43
28.331848859786987,-0.62,-2.55,0.89,2.77
28.334688901901245,-0.38,-2.87,1.11,3.1
28.336622953414917,0.0,-3.3,1.1,3.47
28.343397855758667,0.29,-3.63,0.93,3.75
28.353864908218384,0.37,-3.92,0.67,3.99
28.363489866256714,0.23,-4.26,0.39,4.28
28.374255895614624,-0.1,-4.5,0.12,4.5
28.38441491127014,-0.59,-4.69,-0.05,4.72
28.394877910614014,-1.13,-4.79,-0.16,4.92
28.404830932617188,-1.19,-5.05,-0.22,5.19
28.432872772216797,-0.46,-5.72,-0.38,5.75
28.435662746429443,0.35,-6.57,-0.62,6.6
28.43732786178589,0.45,-7.02,-0.79,7.07
28.456326007843018,0.46,-6.97,-0.65,7.01
28.458860874176025,0.27,-6.58,-0.44,6.6
28.469531059265137,-0.54,-5.66,-0.3,5.69
28.475056886672974,-1.34,-4.52,-0.1,4.71
28.485290050506592,-1.88,-3.56,0.08,4.02
28.495394945144653,-2.22,-2.89,0.17,3.64
28.50543785095215,-2.04,-2.64,0.26,3.34
28.53323984146118,-1.28,-2.98,0.31,3.25
28.536179065704346,-0.25,-3.53,0.14,3.54
28.538365840911865,0.71,-4.0,-0.09,4.06
28.556210041046143,1.72,-4.48,-0.28,4.8
28.558608055114746,2.45,-4.88,-0.52,5.48
28.569117069244385,2.78,-5.13,-0.87,5.89
28.575267791748047,2.59,-5.16,-1.31,5.92
28.585705757141113,1.86,-4.87,-1.56,5.44
28.595651865005493,0.79,-4.25,-1.51,4.57
28.605615854263306,-0.3,-3.71,-1.39,3.97
28.632755756378174,-1.45,-3.34,-1.32,3.87
28.634958744049072,-2.3,-3.1,-1.07,4.0
28.63667893409729,-2.89,-2.89,-0.79,4.16
28.65814781188965,-3.3,-2.68,-0.59,4.29
28.66089677810669,-3.56,-2.48,-0.5,4.36
28.668150901794434,-3.61,-2.31,-0.42,4.3
28.67588472366333,-3.53,-2.18,-0.48,4.17
28.685765743255615,-3.41,-2.09,-0.65,4.05
28.696313858032227,-3.34,-1.99,-0.85,3.97
28.706702947616577,-3.27,-1.89,-1.12,3.93
28.73438286781311,-3.2,-1.83,-1.42,3.95
28.736443996429443,-3.12,-1.71,-1.7,3.94
28.738110065460205,-3.02,-1.56,-1.94,3.91
28.756770849227905,-2.81,-1.44,-2.06,3.77
28.758847951889038,-2.53,-1.3,-1.97,3.46
28.769289016723633,-2.26,-1.04,-1.89,3.12
28.77669095993042,-1.93,-0.75,-1.82,2.75
28.786674976348877,-1.51,-0.55,-1.54,2.22
28.796949863433838,-1.04,-0.32,-1.31,1.7
28.80747079849243,-0.55,-0.15,-1.07,1.21
28.83483386039734,-0.13,0.02,-0.77,0.78
28.83778190612793,0.25,0.22,-0.5,0.6
28.839967727661133,0.62,0.36,-0.13,0.72
28.857621908187866,0.98,0.45,0.25,1.1
28.860005855560303,1.27,0.57,0.59,1.51
28.869202852249146,1.46,0.75,0.83,1.83
28.877100944519043,1.56,0.96,0.98,2.07
28.88724994659424,1.63,1.2,1.11,2.3
28.897319793701172,1.72,1.34,1.17,2.47
28.90805673599243,1.82,1.41,1.12,2.56
28.93637490272522,1.9,1.43,1.04,2.59
28.939085960388184,1.94,1.46,1.0,2.62
28.94111204147339,2.0,1.46,0.97,2.65
28.957191944122314,2.04,1.41,1.02,2.68
28.95980191230774,2.11,1.4,1.13,2.77
28.969766855239868,2.19,1.48,1.29,2.94
28.977820873260498,2.23,1.69,1.49,3.17
28.987989902496338,2.3,1.93,1.65,3.42
28.99877405166626,2.34,2.18,1.79,3.66
29.00855302810669,2.35,2.45,1.87,3.87
29.03528594970703,2.4,2.67,1.96,4.09
29.03832197189331,2.52,2.83,1.99,4.28
29.039767742156982,2.84,2.77,1.96,4.42
29.054964065551758,3.3,2.48,1.96,4.56
29.057990074157715,3.7,2.25,2.0,4.76
29.07021999359131,4.02,2.24,2.11,5.06
29.07841205596924,4.33,2.36,2.3,5.44
29.08843493461609,4.58,2.8,2.57,5.95
29.099341869354248,4.86,3.36,2.92,6.59
29.108953952789307,4.92,4.02,3.1,7.06
29.13685393333435,4.9,4.67,3.17,7.47
29.139530897140503,4.9,5.1,3.17,7.75
29.14150094985962,4.86,5.28,3.12,7.82
29.154950857162476,4.83,5.24,3.03,7.74
29.158795833587646,4.76,5.06,3.05,7.58
29.17009401321411,4.67,4.84,3.23,7.46
29.17912793159485,4.53,4.64,3.48,7.35
29.18927788734436,4.35,4.45,3.64,7.2
29.199947834014893,4.09,4.25,3.68,6.95
29.209611892700195,3.74,4.09,3.66,6.64
29.236949920654297,3.24,3.9,3.52,6.17
29.239855766296387,2.66,3.64,3.21,5.53
29.24217391014099,2.2,3.27,2.86,4.86
29.255444049835205,1.74,2.81,2.55,4.17
29.259253978729248,1.24,2.4,2.35,3.58
29.27052879333496,0.72,2.01,2.29,3.13
29.279743909835815,0.3,1.63,2.39,2.9
29.289981842041016,0.1,1.28,2.52,2.82
29.300134897232056,0.05,0.94,2.35,2.53
29.310122966766357,0.15,0.64,1.91,2.01
29.33931589126587,0.26,0.41,1.31,1.39
29.34266185760498,0.32,0.24,0.76,0.85
29.34503173828125,0.34,0.1,0.22,0.41
29.35540199279785,0.33,-0.06,-0.22,0.4
29.359976768493652,0.27,-0.27,-0.64,0.74
29.370545864105225,0.15,-0.5,-1.01,1.13
29.380773067474365,-0.02,-0.7,-1.24,1.42
29.39094305038452,-0.18,-0.81,-1.37,1.6
29.40140199661255,-0.43,-0.72,-1.42,1.64
29.41096591949463,-0.61,-0.55,-1.33,1.56
29.439167976379395,-0.6,-0.6,-0.91,1.24
29.44210386276245,-0.46,-0.96,-0.24,1.09
29.44449806213379,-0.29,-1.32,0.26,1.37
29.45574188232422,-0.23,-1.53,0.52,1.63
29.460373878479004,-0.23,-1.74,0.79,1.92
29.47098207473755,-0.33,-1.99,0.83,2.18
29.481907844543457,-0.51,-2.19,0.71,2.35
29.490855932235718,-0.71,-2.37,0.51,2.52
29.501606941223145,-0.93,-2.58,0.36,2.76
29.51132893562317,-1.1,-2.78,0.31,3.0
29.539165019989014,-1.27,-2.94,0.34,3.22
29.541461944580078,-1.33,-3.14,0.39,3.43
29.542871952056885,-1.33,-3.38,0.51,3.66
29.550627946853638,-1.16,-3.64,0.7,3.88
29.560786724090576,-0.88,-3.98,0.8,4.15
29.57145404815674,-0.62,-4.33,0.84,4.45
29.581758975982666,-0.43,-4.55,0.89,4.65
29.59150791168213,-0.42,-4.67,0.92,4.77
29.6023850440979,-0.61,-4.72,0.95,4.85
29.61202383041382,-0.85,-4.69,0.98,4.86
29.640384912490845,-1.07,-4.65,0.98,4.87
29.64368772506714,-0.91,-4.84,0.94,5.01
29.646126747131348,-0.27,-5.38,0.75,5.43
29.656375885009766,0.35,-6.0,0.44,6.02
29.661296844482422,0.6,-6.32,0.27,6.35
29.6718168258667,0.54,-6.29,0.2,6.31
29.682199954986572,0.23,-5.94,0.19,5.94
29.692447900772095,-0.34,-5.32,0.22,5.33
29.70215082168579,-0.9,-4.66,0.2,4.75
29.712711811065674,-1.21,-4.14,0.14,4.31
29.7392258644104,-1.42,-3.74,0.08,4.0
29.74212884902954,-1.52,-3.32,0.07,3.65
29.744425773620605,-1.4,-3.08,0.06,3.38
29.754122734069824,-0.92,-3.16,-0.01,3.29
29.762516975402832,-0.27,-3.57,-0.15,3.58
29.77251386642456,0.34,-4.07,-0.29,4.09
29.782904863357544,0.84,-4.44,-0.4,4.53
29.793105840682983,1.17,-4.58,-0.52,4.75
29.8032169342041,1.21,-4.5,-0.66,4.7
29.81310272216797,1.01,-4.21,-0.94,4.43
29.84200692176819,0.63,-3.78,-1.25,4.03
29.844943046569824,0.21,-3.3,-1.48,3.62
29.846935749053955,-0.26,-2.95,-1.71,3.41
29.853912830352783,-0.78,-2.75,-1.98,3.47
29.862794876098633,-1.31,-2.63,-2.02,3.56
29.873281002044678,-1.8,-2.49,-1.83,3.57
29.883495807647705,-2.23,-2.41,-1.43,3.58
29.893914937973022,-2.5,-2.39,-1.06,3.61
29.903419971466064,-2.65,-2.35,-0.84,3.64
29.913723945617676,-2.87,-2.23,-0.64,3.69
29.9437837600708,-3.11,-2.13,-0.48,3.79
29.945814847946167,-3.39,-1.99,-0.35,3.94
29.947375774383545,-3.59,-1.79,-0.23,4.01
29.95398998260498,-3.66,-1.67,-0.16,4.02
29.963418006896973,-3.57,-1.5,-0.15,3.87
29.97321605682373,-3.3,-1.21,-0.16,3.51
29.983819007873535,-2.74,-0.93,-0.22,2.9
29.994005918502808,-2.07,-0.73,-0.32,2.21
30.003972053527832,-1.51,-0.52,-0.36,1.63
30.014381885528564,-0.96,-0.21,-0.32,1.03
30.044496059417725,-0.43,0.08,-0.22,0.48
30.04673194885254,0.06,0.33,-0.13,0.35
30.04842185974121,0.57,0.49,-0.03,0.75
30.05400586128235,1.03,0.63,0.06,1.2
30.064125061035156,1.45,0.77,0.05,1.64
30.074050903320312,1.83,0.92,0.02,2.04
30.084563732147217,2.11,1.06,0.04,2.36
30.094546794891357,2.35,1.23,0.1,2.65
30.10485601425171,2.56,1.39,0.15,2.91
30.11533784866333,2.74,1.49,0.16,3.12
30.14348292350769,2.85,1.54,0.2,3.24
30.146255016326904,2.87,1.6,0.39,3.3
30.148265838623047,2.8,1.73,0.77,3.38
30.154622077941895,2.73,1.88,1.17,3.51
30.164281845092773,2.66,1.98,1.55,3.66
30.17493987083435,2.71,2.05,1.94,3.91
30.185275077819824,2.82,2.13,2.28,4.2
30.195225954055786,2.84,2.31,2.56,4.46
30.205443859100342,2.84,2.6,2.76,4.73
30.21581506729126,2.94,2.94,2.9,5.06
30.243900775909424,3.06,3.3,2.93,5.37
30.246410846710205,3.21,3.56,2.83,5.56
30.24803400039673,3.49,3.72,2.65,5.74
30.25525689125061,4.02,3.59,2.42,5.9
30.265023946762085,4.58,3.22,2.09,5.97
30.275421857833862,4.86,2.98,1.84,5.99
30.28560495376587,4.88,3.12,1.81,6.06
30.295743942260742,4.79,3.63,2.0,6.33
30.305893898010254,5.02,4.16,2.26,6.9
30.316531896591187,5.2,4.68,2.44,7.4
30.34529185295105,5.25,5.08,2.51,7.72
30.34775972366333,5.24,5.33,2.47,7.87
30.34947681427002,5.11,5.4,2.4,7.81
30.3555428981781,4.82,5.23,2.33,7.48
30.369863033294678,4.42,4.93,2.4,7.04
30.375621795654297,3.93,4.61,2.62,6.6
30.385965824127197,3.43,4.27,2.97,6.23
30.396338939666748,3.12,3.97,3.27,6.01
30.406410932540894,2.83,3.88,3.53,5.96
30.417361736297607,2.56,3.92,3.67,5.94
30.444422721862793,2.37,3.87,3.71,5.86
30.446330070495605,2.24,3.65,3.63,5.61
30.447982788085938,2.0,3.41,3.49,5.27
30.4561448097229,1.62,3.29,3.32,4.94
30.466803073883057,1.25,3.18,3.16,4.65
30.476675987243652,1.0,3.01,2.98,4.35
30.486897945404053,0.87,2.75,2.72,3.96
30.497028827667236,0.83,2.43,2.41,3.52
30.50736904144287,0.84,2.08,2.05,3.03
30.517786026000977,0.85,1.69,1.68,2.53
30.546640872955322,0.82,1.33,1.34,2.05
30.54952573776245,0.8,0.98,1.12,1.68
30.551528930664062,0.74,0.64,0.95,1.36
30.556676864624023,0.69,0.29,0.77,1.07
30.570497035980225,0.69,-0.15,0.6,0.92
30.577422857284546,0.68,-0.63,0.55,1.07
30.587430000305176,0.6,-1.03,0.58,1.32
30.59738779067993,0.43,-1.32,0.68,1.54
30.60799288749695,0.23,-1.53,0.82,1.75
30.618252754211426,0.1,-1.64,0.9,1.87
30.650291919708252,0.01,-1.72,0.88,1.93
30.653120040893555,0.04,-1.81,0.82,1.98
30.65495491027832,0.21,-1.98,0.71,2.11
30.656834840774536,0.36,-2.14,0.59,2.24
