time,ax,ay,az,atotal
0.010741949081420898,-0.09,0.11,-0.03,0.14
0.015412092208862305,0.01,0.11,0.12,0.16
0.02530503273010254,0.2,0.08,-0.05,0.22
0.03648209571838379,0.05,0.13,-0.23,0.26
0.04620099067687988,0.12,0.1,-0.03,0.15
0.05671191215515137,0.22,0.1,-0.11,0.26
0.0665738582611084,0.1,0.09,-0.14,0.19
0.07637500762939453,0.07,0.08,0.0,0.1
0.08639097213745117,0.09,0.08,0.05,0.13
0.09775185585021973,0.06,0.07,0.0,0.09
0.10562014579772949,0.06,0.11,-0.1,0.16
0.1162569522857666,0.07,0.11,-0.18,0.22
0.12662696838378906,0.09,0.08,-0.09,0.15
0.13626313209533691,0.09,0.12,-0.09,0.17
0.14709210395812988,0.0,0.11,-0.04,0.11
0.15692996978759766,0.0,0.12,0.0,0.12
0.1670670509338379,0.04,0.15,0.03,0.15
0.17635297775268555,0.0,0.15,0.02,0.15
0.18631291389465332,0.01,0.11,0.02,0.11
0.19677400588989258,0.02,0.11,0.01,0.11
0.20637202262878418,0.0,0.12,0.05,0.13
0.21644902229309082,-0.03,0.08,0.07,0.11
0.22645902633666992,-0.07,0.05,0.17,0.19
0.23642301559448242,-0.09,0.1,0.16,0.2
0.24688315391540527,-0.1,0.17,-0.01,0.19
0.2566258907318115,0.01,0.1,0.11,0.14
0.26653599739074707,0.01,0.04,0.26,0.26
0.2768580913543701,-0.12,0.1,0.18,0.23
0.2868058681488037,-0.06,0.09,0.13,0.16
0.29725098609924316,0.02,0.07,0.04,0.08
0.3068568706512451,-0.02,0.08,-0.01,0.08
0.3169119358062744,-0.01,0.07,0.0,0.07
0.327070951461792,0.01,0.09,0.04,0.09
0.33701395988464355,-0.02,0.1,0.14,0.17
0.34747910499572754,-0.05,0.08,0.18,0.2
0.357097864151001,0.08,0.03,0.22,0.23
0.36716389656066895,0.05,0.05,-0.03,0.07
0.37720203399658203,-0.08,0.08,-0.05,0.12
0.38744497299194336,0.12,0.05,0.15,0.19
0.3973548412322998,0.27,0.09,-0.03,0.28
0.4075591564178467,0.16,0.11,-0.13,0.23
0.4185760021209717,0.14,0.12,-0.02,0.18
0.4286458492279053,0.13,0.08,-0.01,0.15
0.43854308128356934,0.1,0.06,0.03,0.12
0.4487588405609131,0.11,0.07,0.03,0.13
0.45900797843933105,0.03,0.09,-0.06,0.11
0.46877408027648926,0.1,0.09,-0.05,0.14
0.478834867477417,0.17,0.12,-0.04,0.21
0.48883986473083496,0.09,0.12,-0.09,0.17
0.4991610050201416,0.14,0.11,-0.1,0.2
0.5093939304351807,0.12,0.06,0.0,0.13
0.5190951824188232,-0.03,0.08,0.01,0.08
0.5292041301727295,0.02,0.1,-0.04,0.1
0.5390729904174805,-0.03,0.05,0.07,0.09
0.5494239330291748,-0.06,0.09,0.06,0.12
0.5596339702606201,-0.14,0.12,0.04,0.18
0.5693600177764893,-0.01,0.11,0.07,0.13
0.5793240070343018,-0.04,0.05,0.17,0.18
0.5895030498504639,-0.12,0.05,0.23,0.26
0.5996191501617432,-0.1,0.1,0.22,0.26
0.609997034072876,-0.08,0.12,0.23,0.27
0.6196379661560059,-0.12,0.12,0.21,0.26
0.6297380924224854,-0.14,0.1,0.19,0.25
0.639599084854126,-0.06,0.07,0.12,0.15
0.6500251293182373,0.0,0.04,0.08,0.08
0.6601340770721436,-0.01,0.1,0.08,0.12
0.6699888706207275,-0.05,0.08,0.07,0.11
0.6799540519714355,0.03,0.09,0.03,0.09
0.690093994140625,0.05,0.11,-0.02,0.12
0.7001950740814209,0.02,0.1,-0.06,0.11
0.7101850509643555,0.05,0.09,-0.08,0.13
0.7202739715576172,0.05,0.11,-0.11,0.16
0.7303240299224854,0.01,0.12,-0.08,0.14
0.7401590347290039,-0.03,0.11,-0.01,0.11
0.7504990100860596,-0.02,0.09,0.02,0.09
0.7612740993499756,-0.02,0.11,-0.01,0.11
0.7709729671478271,0.0,0.13,-0.04,0.13
0.7806730270385742,0.02,0.12,-0.06,0.13
0.7906930446624756,0.0,0.11,-0.05,0.12
0.8007791042327881,0.01,0.13,-0.01,0.13
0.8107850551605225,0.0,0.12,-0.02,0.12
0.821152925491333,-0.03,0.12,-0.05,0.13
0.8310768604278564,-0.01,0.17,-0.01,0.17
0.840839147567749,0.06,0.12,0.01,0.13
0.8510749340057373,0.04,0.08,-0.03,0.09
0.8610639572143555,0.01,0.08,0.02,0.08
0.8715121746063232,-0.02,0.05,0.04,0.06
0.8812029361724854,-0.01,0.05,0.1,0.11
0.8911700248718262,0.04,0.07,0.11,0.13
0.9013898372650146,0.01,0.09,-0.01,0.09
0.911553144454956,0.02,0.14,-0.16,0.21
0.9219510555267334,0.13,0.11,-0.1,0.19
0.9317359924316406,0.1,0.12,-0.03,0.15
0.9416689872741699,-0.02,0.08,0.03,0.08
0.9519500732421875,0.0,0.07,0.07,0.09
0.961737871170044,0.03,0.1,0.0,0.1
0.9723670482635498,0.06,0.11,-0.02,0.12
0.981889009475708,0.09,0.09,-0.05,0.13
0.9919588565826416,0.04,0.09,-0.08,0.12
1.0019869804382324,0.05,0.09,-0.08,0.13
1.0119900703430176,0.14,0.12,-0.11,0.21
1.0221898555755615,0.14,0.13,-0.18,0.26
1.0321600437164307,0.13,0.11,-0.15,0.22
1.042557954788208,0.14,0.09,-0.07,0.18
1.0522880554199219,0.09,0.1,-0.09,0.16
1.0625011920928955,0.11,0.1,-0.18,0.23
1.0724470615386963,0.13,0.13,-0.12,0.21
1.0822608470916748,0.04,0.14,0.03,0.14
1.0918419361114502,-0.06,0.1,0.04,0.12
1.1016390323638916,0.0,0.11,-0.14,0.17
1.1126830577850342,0.08,0.15,-0.21,0.27
1.1227681636810303,0.02,0.11,-0.1,0.15
1.1325891017913818,-0.07,0.09,-0.1,0.15
1.1426429748535156,-0.09,0.06,-0.02,0.1
1.1528570652008057,-0.08,0.05,0.15,0.17
1.1629951000213623,-0.05,0.05,0.17,0.18
1.173034906387329,-0.03,0.05,0.2,0.2
1.1836440563201904,-0.03,0.08,0.23,0.24
1.1930811405181885,-0.09,0.1,0.21,0.24
1.2032668590545654,-0.1,0.1,0.21,0.25
1.213257074356079,-0.05,0.03,0.35,0.35
1.2232439517974854,-0.02,0.01,0.47,0.47
1.2334280014038086,-0.11,0.05,0.42,0.43
1.243157148361206,-0.13,0.04,0.43,0.45
1.2534258365631104,-0.06,0.06,0.39,0.39
1.2635729312896729,-0.06,0.05,0.34,0.34
1.2735800743103027,-0.08,0.05,0.24,0.25
1.283825159072876,-0.06,0.09,0.12,0.16
1.2936809062957764,0.0,0.05,0.14,0.14
1.303704023361206,0.01,0.0,0.21,0.21
1.3137710094451904,0.01,0.05,0.14,0.14
1.32389497756958,0.01,0.13,0.04,0.13
1.3340089321136475,0.06,0.13,-0.02,0.14
1.3441059589385986,0.09,0.11,-0.06,0.15
1.3540408611297607,0.02,0.11,-0.07,0.13
1.364253044128418,-0.01,0.08,-0.06,0.1
1.3742048740386963,0.05,0.07,-0.01,0.08
1.3842499256134033,0.06,0.11,0.0,0.12
1.3943099975585938,0.03,0.11,0.11,0.15
1.4043529033660889,0.07,0.11,-0.07,0.14
1.4143898487091064,0.12,0.13,-0.18,0.25
1.424381971359253,0.13,0.14,-0.12,0.22
1.434683084487915,0.12,0.11,-0.08,0.18
1.4448230266571045,0.08,0.08,-0.08,0.13
1.45420503616333,0.12,0.08,-0.03,0.14
1.464750051498413,0.11,0.09,0.03,0.14
1.4747631549835205,0.04,0.13,0.0,0.13
1.484834909439087,0.07,0.14,-0.1,0.18
1.4951870441436768,0.14,0.11,-0.15,0.23
1.5049350261688232,0.14,0.11,-0.11,0.2
1.5150048732757568,0.09,0.1,0.01,0.13
1.5251071453094482,0.0,0.07,0.08,0.1
1.5350580215454102,-0.07,0.08,0.04,0.11
1.5452899932861328,0.02,0.09,0.01,0.09
1.5553081035614014,0.06,0.11,-0.05,0.13
1.564851999282837,0.05,0.1,-0.01,0.11
1.5754411220550537,0.03,0.09,0.03,0.09
1.5854830741882324,0.0,0.07,0.07,0.09
1.5958590507507324,0.02,0.04,0.05,0.06
1.6055800914764404,0.06,0.06,0.0,0.08
1.615746021270752,0.04,0.11,0.03,0.12
1.6256420612335205,0.05,0.13,0.01,0.13
1.6357171535491943,0.07,0.14,0.05,0.16
1.6459150314331055,0.08,0.11,0.09,0.16
1.6557881832122803,0.03,0.1,0.04,0.11
1.6660778522491455,0.02,0.07,-0.05,0.08
1.6760919094085693,0.09,0.05,-0.1,0.14
1.6861751079559326,0.12,0.05,-0.07,0.14
1.6962521076202393,0.09,0.06,-0.02,0.1
1.7066419124603271,0.01,0.05,0.0,0.05
1.7165460586547852,0.0,0.09,-0.09,0.12
1.7263259887695312,0.06,0.11,-0.11,0.16
1.7363250255584717,0.06,0.11,-0.09,0.15
1.7461810111999512,0.03,0.09,-0.07,0.11
1.756723165512085,0.0,0.06,-0.08,0.1
1.7665669918060303,-0.04,0.06,-0.15,0.16
1.777324914932251,-0.02,0.15,-0.26,0.3
1.7866380214691162,0.02,0.26,-0.24,0.35
1.7966539859771729,0.05,0.22,0.07,0.23
1.8071060180664062,0.04,0.1,0.23,0.25
1.8170158863067627,-0.05,0.01,0.25,0.25
1.8268890380859375,-0.09,-0.01,0.34,0.35
1.836935043334961,-0.25,0.1,0.3,0.4
1.8469159603118896,-0.3,0.14,0.31,0.45
1.857334852218628,-0.13,0.07,0.36,0.38
1.867199182510376,-0.01,0.06,0.16,0.17
1.8771960735321045,0.0,0.13,0.06,0.14
1.8871781826019287,-0.03,0.11,0.11,0.15
1.8971431255340576,-0.02,0.08,0.13,0.15
1.9076459407806396,0.0,0.05,0.16,0.16
1.9176299571990967,-0.05,0.01,0.19,0.19
1.9274041652679443,-0.14,-0.02,0.18,0.22
1.9375309944152832,-0.17,0.01,0.24,0.29
1.947448968887329,-0.07,0.04,0.28,0.29
1.9579761028289795,0.15,0.1,0.04,0.18
1.9677200317382812,0.14,0.18,-0.12,0.25
1.9777638912200928,0.04,0.16,-0.07,0.17
1.9878599643707275,0.0,0.11,-0.07,0.13
1.9979829788208008,0.05,0.07,0.05,0.09
2.007966995239258,0.06,0.07,-0.01,0.09
2.018202066421509,-0.04,0.11,-0.05,0.12
2.028393030166626,0.02,0.16,-0.12,0.2
2.038348913192749,0.16,0.13,-0.17,0.26
2.0481150150299072,0.13,0.13,-0.13,0.22
2.0582969188690186,0.03,0.09,-0.04,0.1
2.068405866622925,-0.02,0.04,0.2,0.2
2.0783369541168213,0.04,0.03,0.28,0.28
2.087841033935547,0.07,0.08,0.07,0.12
2.0978591442108154,0.09,0.13,-0.1,0.18
2.1078431606292725,0.12,0.11,-0.16,0.22
2.1185991764068604,0.14,0.08,-0.13,0.2
2.1284339427948,0.1,0.08,0.04,0.13
2.138252019882202,0.06,0.07,0.1,0.13
2.148620843887329,0.01,0.06,0.07,0.09
2.158905029296875,0.03,0.05,0.06,0.08
2.1691739559173584,0.08,0.05,0.04,0.1
2.179018974304199,0.12,0.06,0.06,0.14
2.1890130043029785,0.07,0.09,0.06,0.12
2.1991260051727295,0.05,0.11,0.02,0.12
2.209078073501587,0.08,0.09,0.03,0.12
2.219491958618164,0.08,0.08,0.07,0.13
2.2292239665985107,0.07,0.04,0.09,0.12
2.2393529415130615,0.07,0.06,0.09,0.12
2.249303102493286,0.05,0.11,0.07,0.13
2.2592949867248535,0.05,0.14,0.04,0.15
2.2696311473846436,0.03,0.13,0.04,0.13
2.279435873031616,0.0,0.09,0.05,0.1
2.289497137069702,0.03,0.09,-0.01,0.09
2.2995049953460693,0.04,0.09,-0.01,0.09
2.309950113296509,0.03,0.09,0.01,0.09
2.31965708732605,-0.03,0.07,0.01,0.07
2.3297030925750732,-0.03,0.08,0.02,0.08
2.339717149734497,0.05,0.1,-0.01,0.11
2.3498971462249756,0.07,0.14,-0.05,0.16
2.3601911067962646,-0.03,0.12,-0.05,0.13
2.369969129562378,-0.01,0.09,0.01,0.09
2.380012035369873,-0.01,0.09,0.06,0.1
2.3900890350341797,-0.07,0.1,-0.01,0.12
2.400273084640503,0.0,0.11,-0.08,0.13
2.410536050796509,0.02,0.11,-0.05,0.12
2.4202959537506104,-0.03,0.1,0.01,0.1
2.4304440021514893,-0.03,0.08,-0.03,0.09
2.4404079914093018,-0.04,0.1,-0.01,0.1
2.451382875442505,-0.03,0.13,0.04,0.13
2.4609549045562744,0.0,0.12,0.06,0.13
2.4700679779052734,-0.03,0.08,-0.09,0.12
2.4798200130462646,-0.07,0.13,-0.14,0.2
2.4899609088897705,0.0,0.13,0.03,0.13
2.5007331371307373,0.02,0.04,0.19,0.19
2.5101358890533447,0.0,0.08,0.19,0.2
2.520238161087036,0.03,0.16,0.18,0.24
2.5303170680999756,-0.07,0.14,0.18,0.23
2.540397882461548,-0.18,0.04,0.08,0.2
2.55073618888855,-0.14,0.03,0.01,0.14
2.5605661869049072,-0.02,0.08,-0.14,0.16
2.570571184158325,0.09,0.14,-0.12,0.2
2.5805320739746094,0.03,0.14,-0.03,0.14
2.590909004211426,-0.04,0.11,-0.03,0.12
2.6008360385894775,0.07,0.1,0.03,0.12
2.6106841564178467,0.05,0.13,0.01,0.13
2.620889902114868,0.05,0.11,-0.09,0.15
2.6309010982513428,0.09,0.08,-0.17,0.2
2.641300916671753,0.03,0.11,-0.13,0.17
2.651038885116577,0.11,0.09,-0.06,0.15
2.6609950065612793,0.08,0.12,-0.07,0.16
2.671128034591675,0.05,0.12,-0.16,0.2
2.6811270713806152,0.08,0.11,-0.06,0.14
2.691251039505005,0.13,0.04,0.1,0.16
2.7012269496917725,0.04,0.06,0.16,0.17
2.711277961730957,-0.01,0.1,0.28,0.29
2.72153902053833,0.06,0.04,0.32,0.32
2.731768846511841,-0.01,0.04,0.31,0.31
2.7414591312408447,0.03,0.07,0.29,0.29
2.7513978481292725,0.12,0.05,0.12,0.17
2.7615649700164795,-0.01,0.07,0.02,0.07
2.7718100547790527,-0.04,0.11,0.09,0.14
2.7821128368377686,-0.01,0.09,0.08,0.12
2.7927329540252686,-0.01,0.08,-0.07,0.1
2.802659034729004,0.05,0.12,-0.1,0.16
2.812739133834839,0.02,0.12,-0.06,0.13
2.8227741718292236,0.0,0.09,-0.05,0.1
2.832750082015991,-0.01,0.08,-0.02,0.08
2.8427610397338867,-0.03,0.11,-0.05,0.12
2.8527510166168213,0.01,0.16,-0.06,0.17
2.8629138469696045,0.05,0.13,-0.02,0.14
2.8732359409332275,0.0,0.13,-0.02,0.13
2.883105993270874,0.07,0.08,-0.01,0.1
2.8931350708007812,0.09,0.02,-0.02,0.09
2.903156042098999,0.04,0.05,-0.04,0.07
2.9133100509643555,0.07,0.13,0.0,0.14
2.92336106300354,0.07,0.17,0.05,0.19
2.9333629608154297,0.13,0.19,0.14,0.26
2.9432618618011475,0.11,0.11,-0.07,0.17
2.9534170627593994,0.03,0.06,-0.13,0.14
2.9639639854431152,0.1,0.05,-0.04,0.11
2.973651170730591,0.11,0.09,-0.17,0.22
2.983750104904175,0.13,0.11,-0.1,0.19
2.99369215965271,0.07,0.12,0.05,0.14
3.0038020610809326,0.06,0.11,0.0,0.12
3.0146548748016357,0.05,0.08,0.0,0.09
3.0240180492401123,0.06,0.04,0.06,0.09
3.034111976623535,0.03,0.01,0.02,0.03
3.044157028198242,0.03,0.03,0.03,0.05
3.0543248653411865,0.04,0.06,0.06,0.09
3.064167022705078,0.01,0.09,0.05,0.1
3.074256181716919,0.01,0.06,0.08,0.1
3.0838520526885986,-0.06,0.08,0.06,0.11
3.093752145767212,-0.06,0.08,-0.03,0.1
3.10381817817688,-0.04,0.11,-0.05,0.12
3.114032030105591,0.08,0.12,0.08,0.16
3.1244800090789795,0.05,0.11,0.18,0.21
3.13419508934021,-0.08,0.11,0.11,0.17
3.144508123397827,-0.1,0.14,0.11,0.2
3.1549150943756104,0.01,0.09,0.11,0.14
3.1647510528564453,-0.05,0.09,-0.03,0.1
3.174957036972046,-0.03,0.12,0.0,0.12
3.185163974761963,0.03,0.14,0.06,0.15
3.1954920291900635,-0.02,0.11,0.08,0.13
3.205317974090576,-0.05,0.08,0.1,0.13
3.2153098583221436,-0.04,0.07,0.09,0.12
3.2242510318756104,0.01,0.07,-0.07,0.09
3.2346251010894775,-0.02,0.11,-0.15,0.18
3.2449729442596436,-0.02,0.1,-0.03,0.1
3.254487991333008,-0.01,0.1,-0.04,0.1
3.2647039890289307,-0.11,0.13,-0.11,0.2
3.2747671604156494,-0.06,0.12,-0.05,0.14
3.284965991973877,-0.02,0.15,-0.02,0.15
3.2951700687408447,-0.05,0.11,-0.06,0.13
3.3049540519714355,0.04,0.12,-0.09,0.15
3.315103054046631,0.03,0.06,0.05,0.08
3.325263023376465,0.05,0.06,0.08,0.11
3.3357410430908203,0.08,0.13,0.03,0.15
3.3455488681793213,0.14,0.11,0.03,0.18
3.35520601272583,0.14,0.08,0.05,0.16
3.3654401302337646,0.07,0.08,0.04,0.11
3.3755340576171875,0.02,0.08,0.03,0.08
3.3859879970550537,0.06,0.12,0.0,0.13
3.395561933517456,0.07,0.14,-0.02,0.15
3.405794858932495,0.02,0.11,-0.01,0.11
3.415804147720337,0.04,0.06,0.0,0.07
3.4258921146392822,0.11,0.02,-0.04,0.11
3.436275005340576,0.03,0.05,-0.04,0.07
3.4459540843963623,-0.03,0.09,0.08,0.12
3.4559600353240967,0.05,0.11,0.08,0.14
3.4659998416900635,0.03,0.1,0.0,0.1
3.4764890670776367,0.03,0.09,-0.05,0.1
3.486201047897339,0.03,0.07,-0.03,0.08
3.4961540699005127,0.0,0.06,0.0,0.06
3.5062081813812256,-0.03,0.09,0.02,0.09
3.5170199871063232,0.05,0.1,0.09,0.14
3.5270190238952637,0.01,0.08,0.08,0.11
3.537006139755249,-0.06,0.09,0.02,0.1
3.5470049381256104,0.01,0.09,0.03,0.09
3.5570061206817627,0.03,0.09,-0.04,0.1
3.5675289630889893,0.0,0.08,-0.08,0.11
3.577118158340454,-0.05,0.13,-0.04,0.14
3.58719801902771,-0.01,0.15,0.11,0.18
3.5972869396209717,0.06,0.04,0.42,0.42
3.6072871685028076,0.08,-0.13,0.46,0.48
3.617882013320923,0.0,-0.06,0.35,0.35
3.627600908279419,-0.14,0.09,0.21,0.26
3.6376090049743652,-0.21,0.19,0.01,0.28
3.6475889682769775,-0.11,0.18,-0.16,0.26
3.6575889587402344,-0.06,0.13,-0.27,0.3
3.6677370071411133,-0.09,0.08,-0.23,0.25
3.6778271198272705,-0.18,0.16,-0.08,0.25
3.687798023223877,-0.27,0.19,0.01,0.33
3.697882890701294,-0.25,0.14,-0.04,0.28
3.708369016647339,-0.16,0.15,-0.07,0.23
3.7180769443511963,-0.12,0.16,0.0,0.2
3.7280871868133545,-0.1,0.14,0.02,0.17
3.738178014755249,-0.05,0.1,0.04,0.11
3.7481601238250732,-0.06,0.05,0.09,0.11
3.7585129737854004,-0.06,0.07,0.12,0.15
3.7683780193328857,-0.03,0.12,0.17,0.21
3.778369188308716,-0.02,0.12,0.24,0.26
3.788374185562134,0.02,0.1,0.19,0.21
3.798444986343384,0.06,0.05,0.25,0.26
3.809635877609253,0.09,-0.02,0.45,0.45
3.8185250759124756,0.05,-0.02,0.49,0.49
3.8286359310150146,0.05,0.01,0.41,0.41
3.8388259410858154,0.03,0.06,0.34,0.34
3.849151849746704,0.04,0.12,0.17,0.21
3.858870029449463,0.07,0.11,0.03,0.13
3.8689448833465576,0.03,0.1,-0.09,0.13
3.878911018371582,-0.02,0.08,-0.12,0.14
3.888995885848999,-0.1,0.09,-0.03,0.13
3.899445056915283,-0.11,0.09,-0.04,0.14
3.9090030193328857,-0.16,0.07,-0.04,0.17
3.919419050216675,0.02,0.02,0.12,0.12
3.9295389652252197,0.16,0.16,-0.21,0.3
3.9399731159210205,0.23,0.24,-0.41,0.52
3.949789047241211,0.29,0.12,-0.19,0.36
3.9595229625701904,0.2,0.08,-0.09,0.23
3.9698169231414795,0.13,0.11,0.02,0.17
3.9795210361480713,0.12,0.08,0.3,0.33
3.9903039932250977,0.07,0.06,0.27,0.28
3.9996678829193115,0.08,0.05,0.17,0.19
4.009778022766113,0.2,0.05,0.1,0.22
4.019849061965942,0.22,0.08,0.02,0.23
4.029922008514404,0.11,0.06,0.04,0.13
4.0405590534210205,0.17,0.06,0.07,0.19
4.050060033798218,0.18,0.08,0.14,0.24
4.060091018676758,0.15,0.09,0.1,0.2
4.0701470375061035,0.14,0.08,-0.04,0.16
4.079991102218628,0.16,0.1,-0.12,0.22
4.089632987976074,0.14,0.13,-0.09,0.21
4.099496126174927,0.07,0.11,-0.09,0.15
4.110275030136108,0.08,0.08,-0.08,0.13
4.120003938674927,0.08,0.1,-0.04,0.13
4.130335092544556,0.05,0.1,0.0,0.11
4.140500068664551,0.09,0.12,-0.09,0.17
4.150583982467651,0.09,0.11,-0.14,0.19
4.16058611869812,0.05,0.1,-0.03,0.11
4.170820951461792,0.05,0.08,0.01,0.09
4.180804014205933,0.05,0.11,0.05,0.13
4.190845012664795,-0.02,0.11,0.12,0.16
4.200896978378296,0.02,0.07,0.11,0.13
4.211017847061157,0.06,0.09,-0.05,0.11
4.2212889194488525,0.07,0.08,0.05,0.11
4.23103404045105,0.1,0.05,0.09,0.14
4.241103887557983,0.06,0.07,0.02,0.09
4.251312017440796,-0.01,0.08,0.07,0.1
4.261137008666992,0.01,0.07,0.08,0.1
4.271697998046875,0.04,0.09,-0.01,0.09
4.281663179397583,-0.02,0.11,-0.02,0.11
4.291460990905762,-0.01,0.1,0.0,0.1
4.301699876785278,0.01,0.1,0.06,0.11
4.312206983566284,-0.05,0.11,0.05,0.13
4.32171106338501,-0.08,0.12,0.04,0.14
4.3319151401519775,-0.06,0.11,0.06,0.13
4.341787099838257,-0.03,0.07,0.06,0.09
4.352128028869629,-0.02,0.12,-0.03,0.12
4.362100839614868,-0.01,0.14,-0.01,0.14
4.371966123580933,-0.01,0.09,0.05,0.1
4.385213136672974,-0.05,0.07,0.12,0.14
4.392112970352173,-0.01,0.07,0.13,0.14
4.40233302116394,-0.01,0.08,0.06,0.1
4.412336111068726,-0.03,0.11,0.09,0.14
4.422327041625977,-0.03,0.13,0.18,0.22
4.4322669506073,0.01,0.06,0.22,0.22
4.442248106002808,-0.03,0.05,0.14,0.15
4.452346086502075,-0.06,0.08,0.07,0.12
4.462437868118286,0.0,0.09,0.05,0.1
4.472509145736694,0.01,0.09,0.02,0.09
4.482640981674194,-0.03,0.1,0.03,0.1
4.492650032043457,-0.02,0.1,0.03,0.1
4.503013849258423,0.0,0.11,0.02,0.11
4.512683153152466,0.01,0.1,0.0,0.1
4.522868871688843,0.03,0.1,-0.05,0.11
4.532747030258179,0.01,0.1,-0.07,0.12
4.54290509223938,-0.01,0.11,-0.04,0.11
4.5532801151275635,-0.01,0.11,-0.02,0.11
4.563024044036865,-0.01,0.09,0.0,0.09
4.573058843612671,-0.02,0.11,0.01,0.11
4.58309006690979,0.02,0.09,0.06,0.11
4.593445062637329,0.04,0.09,0.04,0.1
4.603083848953247,0.04,0.1,0.02,0.1
4.6133410930633545,0.06,0.08,0.04,0.1
4.6233298778533936,0.07,0.1,0.03,0.12
4.633498907089233,0.08,0.09,0.05,0.13
4.644052982330322,0.05,0.09,0.03,0.1
4.65358304977417,0.04,0.1,0.02,0.1
4.663622140884399,0.05,0.12,-0.01,0.13
4.673587083816528,0.0,0.1,-0.04,0.1
4.683637857437134,0.01,0.09,-0.07,0.11
4.694220066070557,0.04,0.11,-0.09,0.14
4.704200983047485,0.04,0.1,-0.07,0.12
4.714193105697632,0.05,0.1,0.01,0.11
4.7244040966033936,0.04,0.11,0.03,0.12
4.734956979751587,0.04,0.09,-0.01,0.09
4.74407696723938,0.05,0.08,0.0,0.09
4.754137992858887,0.03,0.07,-0.03,0.08
4.7641119956970215,0.03,0.1,-0.03,0.1
4.7745301723480225,0.04,0.1,-0.02,0.1
4.785014867782593,0.04,0.09,0.04,0.1
4.794452905654907,0.0,0.09,0.06,0.1
4.804440975189209,-0.01,0.09,0.05,0.1
4.8146278858184814,0.0,0.1,-0.01,0.1
4.825690984725952,0.04,0.09,-0.1,0.14
4.834992170333862,0.07,0.11,-0.15,0.19
4.844676971435547,0.05,0.15,-0.09,0.18
4.8595499992370605,-0.01,0.15,-0.03,0.15
4.864793062210083,-0.06,0.12,0.05,0.14
4.8752830028533936,-0.05,0.08,0.11,0.14
4.887190103530884,-0.03,0.09,0.06,0.11
4.895192861557007,-0.04,0.11,0.02,0.11
4.90497899055481,-0.09,0.13,0.08,0.17
4.915539979934692,-0.15,0.1,0.18,0.25
4.925644159317017,-0.2,0.09,0.17,0.27
4.93550705909729,-0.11,0.11,0.11,0.19
4.9581310749053955,0.03,0.12,-0.06,0.13
4.963665962219238,0.06,0.07,-0.09,0.12
4.992849111557007,0.03,0.04,-0.01,0.05
4.994613885879517,-0.04,0.08,0.06,0.1
4.995775938034058,-0.01,0.08,0.11,0.13
5.010028123855591,0.04,0.07,0.17,0.18
5.010972023010254,-0.04,0.08,0.24,0.25
5.024816036224365,-0.1,0.06,0.3,0.32
5.027505159378052,-0.08,0.06,0.28,0.29
5.038753032684326,-0.02,0.11,0.24,0.26
5.0456860065460205,0.05,0.07,0.23,0.24
5.055812120437622,0.01,0.08,0.15,0.17
5.094274997711182,-0.01,0.06,0.18,0.19
5.095832109451294,0.09,0.02,0.17,0.19
5.096717119216919,0.09,0.06,-0.03,0.11
5.1073009967803955,0.08,0.1,-0.07,0.14
5.108473062515259,0.09,0.12,-0.08,0.17
5.122549057006836,0.02,0.14,-0.08,0.16
5.125563859939575,-0.01,0.09,0.01,0.09
5.137938022613525,0.01,0.08,0.09,0.12
5.146183013916016,0.03,0.1,0.04,0.11
5.156715154647827,0.07,0.15,-0.05,0.17
5.186342000961304,0.12,0.14,-0.14,0.23
5.187862157821655,0.14,0.12,-0.19,0.26
5.188807010650635,0.14,0.1,-0.1,0.19
5.2099831104278564,0.04,0.1,-0.05,0.11
5.2115960121154785,0.03,0.05,0.0,0.05
5.224545955657959,0.1,0.06,0.01,0.11
5.22699499130249,0.1,0.11,0.04,0.15
5.2385618686676025,0.18,0.12,-0.03,0.21
5.246742010116577,0.18,0.11,-0.09,0.22
5.257199048995972,0.14,0.06,0.06,0.16
5.293884038925171,0.1,0.07,0.14,0.18
5.295354127883911,0.01,0.05,0.15,0.15
5.296388864517212,-0.05,0.02,0.15,0.15
5.3082029819488525,-0.08,0.09,0.12,0.17
5.309305906295776,-0.05,0.08,0.05,0.1
5.323490858078003,0.07,0.1,-0.01,0.12
5.326700925827026,0.07,0.09,-0.01,0.11
5.338598012924194,-0.01,0.11,0.01,0.11
5.347809076309204,-0.02,0.11,0.04,0.11
5.3575780391693115,-0.01,0.11,0.02,0.11
5.392994165420532,0.04,0.09,0.03,0.1
5.394268989562988,0.03,0.07,0.05,0.09
5.395354986190796,0.0,0.06,0.01,0.06
5.410959005355835,0.01,0.09,-0.01,0.09
5.412628889083862,0.03,0.15,0.02,0.15
5.422474145889282,-0.01,0.15,0.11,0.18
5.427850008010864,-0.02,0.07,0.2,0.21
5.4391930103302,-0.05,0.01,0.21,0.21
5.448397874832153,-0.06,0.05,0.12,0.14
5.458549976348877,-0.01,0.07,0.11,0.13
5.4947569370269775,0.04,0.04,0.21,0.21
5.4962708950042725,0.01,0.06,0.27,0.27
5.497405052185059,-0.04,0.08,0.33,0.34
5.5078840255737305,-0.03,0.07,0.33,0.33
5.508908033370972,-0.04,0.04,0.21,0.21
5.523622035980225,-0.06,0.06,0.11,0.13
5.528455972671509,-0.07,0.06,0.12,0.15
5.538586854934692,-0.06,0.1,0.09,0.14
5.548727989196777,-0.05,0.12,0.07,0.14
5.558935880661011,-0.07,0.1,0.01,0.12
5.593396902084351,-0.11,0.09,-0.07,0.15
5.594888925552368,-0.08,0.11,-0.16,0.21
5.59592604637146,-0.03,0.12,-0.16,0.2
5.609642028808594,0.0,0.14,-0.15,0.2
5.6106531620025635,0.03,0.19,-0.2,0.27
5.622957944869995,0.0,0.18,-0.25,0.3
5.629289865493774,-0.03,0.15,-0.17,0.22
5.639028072357178,-0.03,0.13,-0.08,0.15
5.649205923080444,-0.05,0.11,-0.08,0.14
5.659317970275879,-0.03,0.12,-0.07,0.14
5.6948020458221436,0.03,0.1,-0.03,0.1
5.69621205329895,0.05,0.12,-0.1,0.16
5.697309970855713,0.0,0.13,-0.13,0.18
5.708348035812378,-0.05,0.12,0.0,0.13
5.70943808555603,-0.09,0.08,0.01,0.12
5.723859071731567,-0.12,0.1,-0.12,0.19
5.729371070861816,-0.1,0.15,0.02,0.18
5.739731073379517,-0.05,0.07,0.2,0.21
5.750094175338745,-0.04,-0.01,0.09,0.09
5.7600390911102295,0.01,-0.06,0.01,0.06
5.794551134109497,0.08,-0.01,0.03,0.08
5.796044111251831,0.09,0.09,0.05,0.13
5.7970359325408936,0.09,0.14,0.04,0.17
5.8089759349823,0.13,0.11,0.06,0.18
5.810012102127075,0.13,0.11,0.05,0.17
5.823633909225464,0.02,0.11,-0.08,0.13
5.8299560546875,0.01,0.1,-0.12,0.15
5.841261148452759,0.09,0.19,-0.07,0.22
5.850615978240967,0.08,0.17,-0.08,0.2
5.860830068588257,0.05,0.1,-0.06,0.12
5.894408941268921,-0.03,0.11,-0.01,0.11
5.89592719078064,-0.11,0.14,0.04,0.18
5.89705491065979,-0.13,0.06,0.23,0.27
5.909127950668335,-0.15,-0.02,0.33,0.36
5.910187005996704,-0.15,0.01,0.2,0.25
5.924059152603149,-0.08,0.11,0.18,0.22
5.930566072463989,-0.05,0.0,0.37,0.37
5.941102027893066,-0.07,-0.11,0.5,0.51
5.951585054397583,-0.1,-0.07,0.41,0.42
5.961344957351685,-0.02,-0.14,0.32,0.34
5.994702100753784,0.12,-0.23,0.3,0.39
5.996218919754028,0.18,-0.12,0.26,0.33
5.997334957122803,-0.05,-0.05,0.4,0.4
6.008066892623901,-0.3,-0.11,0.55,0.63
6.010714054107666,-0.29,-0.1,0.68,0.74
6.024471998214722,-0.2,-0.03,0.78,0.8
6.031175851821899,-0.25,-0.12,0.79,0.83
6.0415940284729,-0.28,-0.12,0.71,0.77
6.051678895950317,-0.02,0.03,0.6,0.6
6.062152147293091,0.43,-0.04,0.9,0.99
6.098288059234619,0.68,-0.08,0.89,1.12
6.099858999252319,0.63,-0.04,0.59,0.86
6.101022958755493,0.39,0.02,0.45,0.59
6.107106924057007,0.21,0.04,0.33,0.39
6.111288070678711,0.26,0.12,-0.09,0.3
6.123028993606567,0.42,0.25,-0.64,0.8
6.131705045700073,0.41,0.29,-1.02,1.13
6.142193078994751,0.47,0.3,-1.12,1.25
6.152482032775879,0.6,0.26,-0.97,1.16
6.162576913833618,0.78,0.25,-1.13,1.39
6.1951048374176025,0.74,0.3,-1.27,1.5
6.19682502746582,0.47,0.33,-1.03,1.17
6.197970151901245,0.53,0.2,-0.54,0.78
6.208564043045044,0.78,0.02,-0.07,0.78
6.212388038635254,0.8,-0.1,0.23,0.83
6.222498178482056,0.63,-0.1,0.49,0.8
6.233137845993042,0.54,-0.03,0.36,0.64
6.243130922317505,0.27,0.09,0.19,0.34
6.253307104110718,0.13,0.1,0.35,0.38
6.263092041015625,0.19,0.01,0.32,0.37
6.296329021453857,0.39,-0.12,0.05,0.41
6.298223972320557,0.74,-0.08,-0.36,0.82
6.299344062805176,0.88,0.1,-0.7,1.12
6.307456016540527,0.74,0.21,-0.92,1.19
6.31240701675415,0.68,0.22,-0.93,1.17
6.323791980743408,0.85,0.11,-0.77,1.15
6.333276033401489,1.0,0.09,-0.57,1.15
6.343312978744507,0.81,0.07,-0.34,0.88
6.353923082351685,0.35,0.0,-0.18,0.39
6.3636181354522705,-0.12,0.0,-0.05,0.13
6.3980491161346436,-0.24,-0.01,0.04,0.24
6.39978289604187,-0.2,0.0,-0.01,0.2
6.400840997695923,0.0,0.03,-0.01,0.03
6.407294034957886,0.25,0.05,-0.12,0.28
6.413033962249756,0.33,0.05,-0.18,0.37
6.423733949661255,0.36,0.04,0.03,0.36
6.434004068374634,0.41,-0.05,0.05,0.41
6.443989038467407,0.54,-0.1,0.13,0.56
6.454467058181763,0.64,-0.12,0.18,0.67
6.464677095413208,0.51,-0.16,0.25,0.59
6.498523950576782,0.3,-0.16,0.41,0.53
6.499950170516968,0.26,-0.2,0.45,0.55
6.501093149185181,0.31,-0.28,0.52,0.66
6.507341146469116,0.31,-0.3,0.38,0.57
6.513996839523315,0.14,-0.27,0.17,0.34
6.524040937423706,0.03,-0.09,0.04,0.1
6.534142971038818,0.12,0.06,-0.03,0.13
6.544461011886597,0.26,0.08,-0.16,0.31
6.555063962936401,0.31,0.04,-0.21,0.37
6.564885854721069,0.32,-0.03,-0.16,0.35
6.600203037261963,0.33,-0.12,-0.1,0.36
6.601736068725586,0.36,-0.17,-0.07,0.4
6.602903127670288,0.22,-0.11,-0.06,0.25
6.607933044433594,0.0,-0.18,0.0,0.18
6.623578071594238,-0.29,-0.25,0.06,0.38
6.62537693977356,-0.62,-0.28,0.25,0.72
6.639312982559204,-0.84,-0.3,0.46,1.0
6.6450841426849365,-0.86,-0.37,0.26,0.97
6.656126022338867,-1.04,-0.03,-0.08,1.04
6.665462017059326,-1.15,0.43,-0.28,1.25
6.6975929737091064,-0.95,0.39,-0.5,1.14
6.698933839797974,-1.14,0.11,-0.57,1.27
6.700046062469482,-1.3,-0.03,-0.19,1.31
6.707594156265259,-1.07,0.03,0.05,1.07
6.714927911758423,-0.87,0.15,-0.02,0.88
6.725248098373413,-0.98,0.39,-0.09,1.05
6.735347032546997,-1.28,0.19,-0.22,1.31
6.746137857437134,-1.32,0.08,-0.01,1.32
6.755637884140015,-1.35,0.03,0.3,1.38
6.766082048416138,-1.57,-0.09,0.42,1.62
6.8000428676605225,-1.72,-0.04,0.36,1.75
6.8016040325164795,-1.59,0.28,-0.12,1.61
6.802783966064453,-1.39,0.42,-0.59,1.56
6.807579040527344,-1.14,0.63,-0.39,1.35
6.815474033355713,-0.74,0.66,-0.36,1.05
6.825896978378296,-0.53,0.42,-0.41,0.79
6.835968017578125,-0.31,0.2,-0.14,0.39
6.846400022506714,-0.1,-0.04,0.53,0.54
6.8578619956970215,-0.18,-0.42,0.86,0.97
6.8666908740997314,-0.52,-0.48,0.79,1.06
6.90096116065979,-0.53,-0.35,0.59,0.86
6.902578115463257,-0.08,-0.19,0.15,0.25
6.9036970138549805,0.4,-0.13,-0.43,0.6
6.907632112503052,0.58,-0.11,-1.0,1.16
6.923663854598999,0.29,0.26,-1.45,1.5
6.92637300491333,-0.41,0.46,-1.27,1.41
6.93892502784729,-0.83,0.44,-0.81,1.24
6.946974992752075,-0.53,0.25,-0.33,0.67
6.957442998886108,0.09,0.21,-0.01,0.22
6.967490911483765,0.34,0.28,0.18,0.47
6.998910188674927,0.35,0.07,0.59,0.68
7.00025486946106,0.59,-0.25,0.78,1.0
7.001374006271362,0.89,-0.31,0.5,1.06
7.007889986038208,1.01,0.03,-0.04,1.01
7.016987085342407,0.86,0.17,-0.53,1.02
7.027147054672241,0.53,0.16,-0.76,0.94
7.037698984146118,0.3,0.24,-0.7,0.79
7.04769492149353,0.06,0.18,-0.51,0.54
7.057830095291138,-0.2,0.1,-0.08,0.23
7.068202018737793,0.02,0.03,0.44,0.44
7.105767011642456,0.7,-0.11,0.55,0.89
7.10732102394104,0.63,0.05,0.17,0.65
7.1084558963775635,-0.04,0.23,-0.03,0.23
7.127192974090576,-0.34,0.18,-0.29,0.48
7.128022909164429,-0.42,0.15,-0.56,0.71
7.140902042388916,-0.43,0.23,-0.58,0.75
7.142613172531128,-0.16,0.13,-0.33,0.38
7.156047105789185,-0.14,-0.04,0.07,0.16
7.158169984817505,-0.53,0.07,0.46,0.7
7.1733081340789795,-0.75,0.02,0.63,0.97
7.197360992431641,-0.66,-0.03,0.53,0.84
7.198904037475586,-0.64,0.06,0.27,0.69
7.200009107589722,-0.4,0.18,-0.11,0.45
7.208071947097778,-0.12,0.05,-0.28,0.3
7.218225002288818,-0.19,0.05,-0.04,0.2
7.228277921676636,-0.37,0.13,0.12,0.41
7.238471984863281,-0.66,0.11,0.11,0.67
7.248620986938477,-0.93,0.15,0.06,0.94
7.259366035461426,-1.01,0.1,0.32,1.06
7.269070863723755,-0.73,0.07,0.38,0.82
7.303094148635864,-0.26,0.13,0.21,0.35
7.304625034332275,-0.04,0.24,0.1,0.26
7.305730104446411,0.0,0.21,0.06,0.21
7.30865216255188,-0.09,0.13,-0.14,0.21
7.31853985786438,-0.42,0.26,-0.41,0.64
7.329068899154663,-0.55,0.4,-0.28,0.73
7.338842153549194,-0.6,0.44,0.22,0.77
7.3493430614471436,-0.88,0.42,0.49,1.09
7.359729051589966,-1.18,0.36,0.56,1.35
7.369900941848755,-1.17,0.54,0.81,1.52
7.400742053985596,-1.14,1.0,0.87,1.74
7.402345895767212,-1.36,1.44,1.1,2.26
7.403569936752319,-1.47,1.8,0.99,2.52
7.409090995788574,-1.28,2.2,0.37,2.57
7.423280954360962,-1.19,2.64,-0.12,2.89
7.429115056991577,-1.55,2.86,-0.28,3.26
7.43946385383606,-2.21,3.31,-0.48,4.0
7.450085878372192,-2.75,3.93,-0.4,4.81
7.459995985031128,-3.35,4.36,-0.08,5.49
7.470506906509399,-4.16,4.41,0.41,6.07
7.501856088638306,-4.98,4.58,0.48,6.78
7.50334095954895,-5.31,5.11,0.55,7.38
7.504470109939575,-5.61,5.6,0.58,7.94
7.509639024734497,-6.21,5.99,0.81,8.66
7.523782014846802,-7.01,6.86,0.6,9.82
7.529986143112183,-7.74,7.0,0.74,10.46
7.540802955627441,-8.5,6.55,0.64,10.74
7.5507659912109375,-8.4,5.77,0.59,10.2
7.560728073120117,-7.59,5.01,0.55,9.11
7.571139097213745,-6.49,4.64,2.17,8.26
7.6039979457855225,-5.29,6.01,2.31,8.33
7.606022119522095,-3.19,6.96,1.61,7.82
7.607474088668823,-1.97,5.53,1.92,6.17
7.627779960632324,-3.12,4.01,1.9,5.42
7.62955904006958,-5.59,2.75,2.24,6.62
7.641876935958862,-7.46,1.61,2.15,7.92
7.644311189651489,-8.14,0.75,2.46,8.53
7.656170129776001,-7.04,-0.04,3.73,7.96
7.661151170730591,-4.64,-0.92,5.05,6.91
7.6733739376068115,-0.39,-1.19,3.52,3.73
7.702110052108765,3.48,-2.19,0.47,4.13
7.703660011291504,-1.18,-1.75,-0.35,2.13
7.704807996749878,-7.07,-1.09,-0.14,7.15
7.71099591255188,-9.85,-1.82,0.66,10.03
7.721314191818237,-9.76,-2.94,1.23,10.26
7.731855154037476,-7.65,-3.4,0.95,8.42
7.741997003555298,-5.6,-3.14,0.17,6.42
7.752143144607544,-4.5,-2.85,-0.43,5.34
7.761955976486206,-4.23,-2.8,-0.43,5.09
7.772445917129517,-4.23,-2.88,-0.22,5.12
7.804823160171509,-4.09,-2.83,-0.27,4.98
7.80684494972229,-4.07,-2.6,-0.6,4.86
7.80795693397522,-4.29,-2.21,-0.94,4.91
7.828459024429321,-4.37,-1.79,-0.88,4.8
7.830218076705933,-4.21,-1.47,-0.45,4.48
7.841330051422119,-3.94,-1.18,-0.18,4.11
7.843844175338745,-3.61,-0.74,-0.11,3.68
7.856860876083374,-3.09,-0.21,-0.17,3.1
7.862662076950073,-2.31,0.44,-0.46,2.39
7.87600302696228,-1.28,1.14,-1.12,2.04
7.903462171554565,-0.06,1.68,-1.93,2.55
7.904921054840088,1.03,2.28,-2.46,3.5
7.9060280323028564,1.69,2.93,-2.5,4.2
7.9123451709747314,2.14,3.52,-2.24,4.68
7.922228097915649,2.4,3.51,-2.06,4.72
7.93257212638855,3.02,4.54,-1.65,5.69
7.943030118942261,3.53,5.24,-1.95,6.61
7.953131914138794,4.16,5.44,-1.96,7.12
7.963753938674927,4.75,5.35,-1.58,7.32
7.973254919052124,5.46,6.04,-0.86,8.18
8.005943059921265,5.8,6.36,-0.67,8.63
8.007321119308472,6.54,6.46,-0.27,9.19
8.008489847183228,7.62,6.12,-0.03,9.77
8.02823805809021,9.01,4.96,-0.01,10.28
8.030122995376587,10.15,3.5,-0.38,10.74
8.041866064071655,10.58,2.65,-0.67,10.92
8.044530153274536,10.68,2.23,-1.02,10.95
8.056889057159424,10.54,1.89,-1.53,10.81
8.063534021377563,10.64,1.67,-2.3,11.01
8.07406497001648,11.39,1.38,-3.04,11.86
8.1027250289917,12.27,1.31,-3.53,12.83
8.10432505607605,12.98,1.66,-4.1,13.71
8.105450868606567,11.14,3.17,-3.93,12.23
8.113220930099487,8.69,3.36,-3.64,10.0
8.123836994171143,1.07,0.98,-7.46,7.59
8.133687973022461,-14.36,2.81,-0.59,14.64
8.144414186477661,-20.45,11.51,5.92,24.2
8.154798030853271,-2.67,11.2,3.41,12.0
8.16429591178894,10.73,8.18,2.56,13.73
8.174605131149292,12.66,11.92,4.35,17.92
8.209959030151367,14.73,3.29,-6.12,16.28
8.211726903915405,8.1,-4.44,-5.63,10.81
8.212870836257935,-0.78,-5.9,5.89,8.37
8.227914094924927,-1.87,-3.51,7.8,8.75
8.228795051574707,0.17,-0.65,1.9,2.01
8.241621971130371,3.01,1.91,-4.73,5.92
8.244577169418335,5.95,3.04,-5.08,8.39
8.256867170333862,6.35,1.1,-2.16,6.79
8.26508116722107,4.21,-1.23,-0.42,4.4
8.275017976760864,1.43,-0.95,-0.4,1.76
8.308922052383423,-0.61,0.21,-0.04,0.64
8.310478925704956,-1.6,0.6,0.57,1.8
8.31161093711853,-0.92,0.21,1.23,1.55
8.328124046325684,0.46,-0.41,1.07,1.23
8.329962015151978,1.24,-0.42,0.14,1.31
8.340923070907593,1.14,-0.18,-0.26,1.18
8.344900846481323,0.24,-0.06,-0.02,0.24
8.357063055038452,-0.84,-0.04,0.5,0.97
8.365432024002075,-1.62,-0.13,0.87,1.84
8.376010179519653,-1.9,-0.04,0.68,2.01
8.410835981369019,-2.22,0.12,0.65,2.31
8.412369012832642,-2.27,0.04,0.37,2.3
8.413485050201416,-1.71,0.06,-0.1,1.71
8.42610502243042,-0.93,0.13,-0.37,1.0
8.427251100540161,-0.43,0.35,-0.52,0.76
8.444859981536865,-0.3,0.71,-0.28,0.82
8.44667100906372,-0.35,0.76,0.17,0.85
8.457288980484009,-0.43,0.53,0.33,0.75
8.466480016708374,-0.37,0.41,0.3,0.62
8.47634506225586,-0.35,0.35,0.13,0.51
8.508608102798462,-0.47,0.49,-0.21,0.71
8.510164022445679,-0.61,0.55,-0.35,0.89
8.511308908462524,-0.8,0.48,-0.32,0.98
8.52773118019104,-0.78,0.72,-0.51,1.17
8.529448986053467,-0.69,0.86,-0.6,1.25
8.541213035583496,-0.73,0.93,-0.37,1.23
8.546242952346802,-0.87,0.95,-0.34,1.33
8.557767152786255,-1.08,1.02,-0.28,1.51
8.567016839981079,-1.3,0.99,-0.3,1.66
8.576842069625854,-1.48,1.09,-0.31,1.86
8.6097891330719,-1.58,1.19,-0.08,1.97
8.61118197441101,-1.72,1.34,0.32,2.2
8.612297058105469,-2.06,1.52,0.63,2.63
8.628432989120483,-2.31,1.74,0.75,2.98
8.63018012046814,-2.37,1.95,0.76,3.16
8.640995025634766,-2.44,2.19,0.77,3.36
8.64687705039978,-2.76,2.45,0.77,3.77
8.6579749584198,-3.61,2.65,0.81,4.55
8.66723895072937,-4.64,3.16,0.69,5.65
8.677525043487549,-5.42,3.66,0.33,6.54
8.709079027175903,-5.82,3.76,-0.33,6.93
8.711323976516724,-6.6,3.95,-1.01,7.75
8.712481021881104,-7.75,4.2,-1.48,8.93
8.728586912155151,-9.0,4.88,-1.85,10.4
8.730340957641602,-10.23,5.91,-1.93,11.97
8.742018938064575,-11.18,6.6,-1.09,13.02
8.747750043869019,-11.95,6.35,0.46,13.54
8.757758855819702,-12.38,6.62,1.76,14.14
8.767730951309204,-10.49,7.88,2.33,13.32
8.777935981750488,-5.25,8.79,2.55,10.55
8.80690312385559,0.05,10.34,3.24,10.83
8.809099912643433,0.56,12.55,3.62,13.07
8.810756921768188,-3.36,9.94,5.52,11.85
8.828999996185303,-6.09,5.64,4.97,9.67
8.831073999404907,-7.26,2.47,4.89,9.09
8.841299057006836,-8.29,0.53,4.59,9.49
8.848433017730713,-8.45,-0.25,5.35,10.0
8.858587980270386,-5.32,1.0,6.24,8.26
8.868494987487793,1.45,2.1,3.11,4.02
8.879063844680786,8.06,-0.56,-0.79,8.11
8.9117271900177,4.82,-1.65,1.17,5.22
8.913860082626343,-3.45,-1.67,3.63,5.27
8.91547703742981,-7.31,-3.84,4.72,9.51
8.926087141036987,-9.18,-6.46,3.97,11.9
8.928285837173462,-9.91,-7.09,1.91,12.33
8.94182300567627,-8.72,-5.82,0.32,10.48
8.94887089729309,-6.26,-4.52,0.04,7.72
8.959151983261108,-4.55,-3.63,0.19,5.82
8.969141006469727,-3.78,-3.23,0.19,4.97
8.979268074035645,-3.23,-3.43,0.29,4.72
9.010800123214722,-2.7,-4.15,0.33,4.96
9.012899160385132,-2.35,-4.71,0.32,5.27
9.014729022979736,-2.18,-4.62,0.12,5.1
9.027540922164917,-2.12,-3.96,-0.31,4.5
9.028915166854858,-2.13,-2.91,-0.71,3.67
9.042283058166504,-1.97,-1.91,-0.61,2.81
9.049458026885986,-1.48,-1.3,0.01,1.96
9.05976414680481,-1.01,-1.03,0.77,1.63
9.069824934005737,-0.77,-0.55,1.38,1.67
9.080617189407349,-0.5,0.61,1.66,1.83
9.111354112625122,0.19,2.08,1.34,2.48
9.113424062728882,1.07,3.29,1.02,3.6
9.114639043807983,1.66,4.47,1.2,4.91
9.127110004425049,1.76,5.45,1.84,6.01
9.129539966583252,1.72,7.07,2.5,7.69
9.142593145370483,1.77,8.79,2.74,9.37
9.150059938430786,2.25,9.89,2.94,10.56
9.160167932510376,3.26,10.46,3.36,11.45
9.171476125717163,4.45,9.86,3.81,11.46
9.180376052856445,5.25,8.56,3.83,10.74
9.210521936416626,5.76,6.27,2.42,8.85
9.21274209022522,7.01,4.59,0.02,8.37
9.214446067810059,9.34,3.79,-1.21,10.15
9.229037046432495,11.33,3.1,-1.33,11.82
9.230772972106934,11.87,3.08,-2.58,12.53
9.24229884147644,12.13,2.91,-4.19,13.15
9.251278162002563,12.45,1.81,-5.34,13.66
9.261193037033081,12.54,1.14,-4.98,13.54
9.271409034729004,12.26,1.82,-5.22,13.44
9.281805038452148,10.51,2.74,-5.17,12.02
9.313042879104614,9.89,2.35,-7.25,12.48
9.315551042556763,9.43,4.87,-12.25,16.2
9.317288160324097,4.11,7.26,-18.95,20.7
9.325969934463501,-10.87,13.01,-4.73,17.6
9.330808877944946,-12.89,14.0,5.08,19.69
9.342249155044556,3.15,12.76,2.17,13.32
9.351331949234009,13.82,14.81,4.3,20.7
9.361294984817505,13.12,0.81,-4.24,13.81
9.371925115585327,3.08,-8.54,0.12,9.07
9.381649017333984,0.5,-11.38,16.34,19.91
9.407932996749878,1.48,-8.11,16.79,18.7
9.410223007202148,0.5,-0.98,1.96,2.24
9.411772966384888,2.29,2.74,-8.61,9.32
9.428086996078491,5.49,5.25,-9.28,11.99
9.43108606338501,7.21,3.17,-5.98,9.88
9.442028045654297,7.6,-0.97,-3.83,8.56
9.451831102371216,5.15,-1.63,-3.39,6.37
9.46214509010315,1.53,-0.42,-0.7,1.73
9.472366094589233,-1.5,0.29,3.43,3.75
9.48275899887085,-3.47,0.16,5.16,6.22
9.514348983764648,-2.44,-0.4,2.87,3.78
9.516935110092163,1.3,-0.42,0.22,1.38
9.518707990646362,3.6,0.14,-0.79,3.68
9.526038885116577,3.03,0.43,-1.23,3.29
9.531928062438965,0.78,0.42,-0.95,1.29
9.542280912399292,-1.24,0.53,-0.41,1.4
9.552449941635132,-2.16,0.69,0.17,2.27
9.563163042068481,-2.29,0.53,0.29,2.36
9.572913885116577,-1.81,0.35,0.19,1.85
9.582777976989746,-1.07,0.37,0.27,1.16
9.612596035003662,-0.61,0.23,-0.02,0.65
9.614883184432983,-0.52,0.27,-0.13,0.6
9.616624116897583,-0.91,0.18,0.32,0.98
9.625734090805054,-1.15,-0.04,0.46,1.23
9.632510900497437,-1.01,-0.13,0.56,1.16
9.64266300201416,-0.63,0.67,0.06,0.92
9.653393983840942,-0.67,1.74,0.21,1.87
9.663038969039917,-1.06,1.57,-0.01,1.89
9.673756837844849,-1.51,1.14,-0.16,1.89
9.683565855026245,-2.02,1.08,-0.22,2.3
9.713652849197388,-2.22,1.0,-0.21,2.44
9.715881109237671,-2.21,0.79,-0.31,2.36
9.717651128768921,-2.24,0.9,-0.29,2.43
9.726930856704712,-2.46,1.22,-0.13,2.74
9.73308801651001,-2.78,1.55,0.03,3.18
9.743661165237427,-2.83,1.97,0.21,3.45
9.75405502319336,-2.72,2.26,0.52,3.57
9.763877153396606,-2.8,2.54,0.77,3.85
9.773928880691528,-2.97,2.73,0.84,4.12
9.784394025802612,-3.19,2.65,0.75,4.21
9.81627607345581,-3.5,2.51,0.64,4.35
9.818428039550781,-3.83,2.74,0.59,4.74
9.820080995559692,-4.46,2.91,0.85,5.39
9.826238870620728,-5.58,3.12,1.19,6.5
9.833853960037231,-6.91,3.83,1.43,8.02
9.844033002853394,-8.14,5.01,1.67,9.7
9.854393005371094,-9.58,6.58,2.15,11.81
9.864463090896606,-11.5,7.26,2.31,13.79
9.874472856521606,-13.59,7.19,2.19,15.52
9.885426998138428,-14.4,7.55,1.89,16.36
9.918259859085083,-13.34,8.27,1.91,15.81
9.920357942581177,-10.05,9.37,2.34,13.93
9.921566009521484,-5.03,10.26,4.16,12.16
9.9258291721344,-1.25,10.96,5.37,12.26
9.942101001739502,-1.35,10.06,5.03,11.32
9.944283962249756,-3.76,6.99,3.78,8.79
9.95778489112854,-5.63,3.56,2.81,7.22
9.965113878250122,-6.66,1.63,2.74,7.38
9.975389957427979,-6.51,0.28,3.25,7.28
9.985522985458374,-3.92,1.0,5.11,6.51
10.017263174057007,2.26,1.9,3.09,4.27
10.01875901222229,9.51,-1.66,-0.82,9.68
10.019911050796509,8.4,-2.93,-0.94,8.94
10.027081966400146,-0.65,-1.86,0.04,1.97
10.035135984420776,-6.13,-3.18,-0.31,6.91
10.045804977416992,-9.92,-5.14,-0.7,11.19
10.055926084518433,-11.75,-5.68,-0.23,13.05
10.065746068954468,-10.1,-5.7,0.79,11.62
10.076092958450317,-7.04,-5.16,0.8,8.76
10.086488962173462,-4.33,-4.73,0.03,6.41
10.114794969558716,-2.3,-5.12,-0.66,5.65
10.117067098617554,-2.06,-5.72,-0.78,6.12
10.118795156478882,-3.76,-6.0,-0.68,7.11
10.125939130783081,-5.73,-5.92,-0.69,8.26
10.135284185409546,-6.62,-5.47,-0.71,8.61
10.145859956741333,-6.29,-4.56,-0.53,7.78
10.156307935714722,-5.38,-3.72,-0.39,6.55
10.166589975357056,-4.53,-3.0,-0.4,5.44
10.176200151443481,-3.59,-1.93,-0.84,4.16
10.186372995376587,-2.31,-0.99,-1.06,2.72
10.21693205833435,-0.84,-0.33,-1.33,1.6
10.219195127487183,0.7,0.27,-2.02,2.15
10.220773935317993,2.09,1.03,-2.55,3.45
10.226083040237427,2.92,2.15,-2.71,4.52
10.23609709739685,3.29,3.6,-2.97,5.71
10.246227979660034,3.67,5.3,-3.2,7.19
10.257184028625488,4.08,6.77,-3.01,8.45
10.266708135604858,4.42,7.79,-2.24,9.23
10.276905059814453,4.74,8.62,-1.17,9.9
10.286990880966187,4.99,9.21,-0.26,10.47
10.318115949630737,4.84,9.43,0.36,10.6
10.320378065109253,3.8,9.85,1.36,10.64
10.321973085403442,4.28,7.44,2.54,8.95
10.32644009590149,6.14,5.0,2.91,8.43
10.341801881790161,9.08,4.14,1.08,10.03
10.347100019454956,12.52,3.23,-1.45,13.01
10.358500003814697,14.51,3.04,-2.38,15.01
10.367508172988892,13.92,2.81,-2.63,14.44
10.377558946609497,13.12,2.52,-3.46,13.8
10.387753009796143,13.5,2.2,-4.92,14.53
10.419941186904907,15.06,3.04,-9.12,17.86
10.421571016311646,11.21,3.39,-18.27,21.7
10.422688007354736,-6.34,13.19,-8.67,17.01
10.42728590965271,-13.79,21.62,6.56,26.46
10.437791109085083,2.84,20.38,10.37,23.04
10.447649002075195,19.04,7.21,-1.52,20.41
10.45749807357788,12.43,-4.85,-12.79,18.48
10.467790842056274,0.09,-9.84,2.82,10.23
10.478505849838257,2.31,-9.76,15.19,18.2
10.488492012023926,3.93,-5.24,8.33,10.59
10.518387079238892,1.9,0.1,-5.97,6.26
10.519999980926514,3.91,4.55,-5.83,8.36
10.521188020706177,5.46,5.39,-3.69,8.51
10.528280019760132,5.92,0.91,-3.27,6.82
10.537994146347046,5.05,-2.07,-2.21,5.88
10.548367023468018,2.46,-0.99,-1.09,2.86
10.55863904953003,-0.79,0.54,0.44,1.05
10.568683862686157,-2.4,0.59,2.78,3.71
10.578654050827026,-1.49,-0.35,2.7,3.1
10.589537858963013,0.88,-0.79,1.76,2.12
10.621409177780151,2.29,-0.47,0.56,2.4
10.623637914657593,1.87,0.02,-0.18,1.87
10.624762058258057,0.55,0.21,-0.01,0.58
10.628112077713013,-0.82,0.32,0.02,0.88
10.63852596282959,-1.56,0.43,-0.11,1.62
10.648696184158325,-1.45,0.48,0.1,1.53
10.659026861190796,-1.22,0.48,0.19,1.32
10.669440984725952,-1.28,0.33,0.29,1.35
10.679251909255981,-1.41,0.2,0.2,1.43
10.689754962921143,-1.44,0.18,-0.09,1.45
10.722144842147827,-1.14,0.08,-0.11,1.14
10.724256038665771,-0.66,0.01,0.04,0.66
10.726034879684448,-0.29,-0.04,0.08,0.3
10.728741884231567,-0.16,-0.01,0.34,0.37
10.738785028457642,0.04,0.48,0.25,0.54
10.749211072921753,-0.08,1.39,-0.16,1.4
10.760031938552856,-0.18,1.32,-0.62,1.46
10.770159006118774,-0.44,0.98,-0.74,1.3
10.780119180679321,-0.89,1.0,-0.82,1.56
10.790332078933716,-1.34,1.0,-0.87,1.88
10.81996202468872,-1.42,0.9,-0.77,1.84
10.822099924087524,-1.72,1.1,-0.46,2.09
10.823867082595825,-2.27,1.34,0.02,2.63
10.829332113265991,-2.78,1.54,0.46,3.21
10.839802980422974,-3.26,1.83,0.73,3.8
10.849765062332153,-3.41,2.2,0.95,4.16
10.860314130783081,-3.42,2.38,1.09,4.3
10.870300054550171,-3.51,2.4,0.96,4.35
10.880437135696411,-3.6,2.63,0.52,4.48
10.890857934951782,-3.57,2.85,0.21,4.57
10.920644044876099,-3.86,2.9,0.17,4.83
10.923115968704224,-4.5,3.2,0.72,5.56
10.925494909286499,-5.55,3.78,1.4,6.85
10.929979085922241,-6.88,4.49,1.99,8.45
10.940171957015991,-8.36,5.83,2.2,10.42
10.950423002243042,-10.25,7.28,2.12,12.74
10.960923910140991,-12.56,7.93,1.53,14.93
10.970935106277466,-14.17,7.71,0.63,16.14
10.981006860733032,-15.19,7.31,-0.26,16.85
10.991727113723755,-15.31,6.95,-0.56,16.82
11.022912979125977,-12.51,7.25,-0.52,14.46
11.024855852127075,-5.78,8.3,0.56,10.12
11.025979995727539,0.58,10.15,3.18,10.65
11.045861005783081,2.67,10.23,4.41,11.45
11.047877073287964,0.41,7.5,3.84,8.43
11.060415029525757,-3.46,4.03,3.34,6.27
11.063432931900024,-6.17,1.49,3.29,7.14
11.075259923934937,-7.59,-0.43,3.11,8.21
11.082242965698242,-7.79,-1.42,4.3,9.01
11.0958731174469,-4.9,-0.38,6.34,8.02
11.120115995407104,1.98,1.32,5.02,5.55
11.121764898300171,8.72,-1.91,0.09,8.92
11.12293004989624,7.49,-4.1,-1.19,8.62
11.131868124008179,-1.48,-3.28,0.48,3.63
11.141863107681274,-6.85,-4.04,1.73,8.13
11.151880025863647,-10.24,-5.64,0.65,11.7
11.162036180496216,-12.13,-6.36,-1.06,13.73
11.17251706123352,-11.52,-5.19,-1.21,12.69
11.18254804611206,-8.07,-3.87,-0.32,8.95
11.192742109298706,-4.88,-3.09,0.04,5.77
11.224994897842407,-3.16,-3.11,-0.3,4.44
11.227152109146118,-2.67,-3.45,-0.84,4.44
11.228662014007568,-3.05,-3.62,-1.09,4.85
11.246544122695923,-3.56,-3.48,-1.07,5.09
11.249069929122925,-3.74,-3.12,-1.02,4.97
11.259986162185669,-3.86,-2.56,-0.85,4.7
11.263108968734741,-3.7,-1.67,-0.56,4.09
11.275259017944336,-3.08,-0.69,0.03,3.15
11.282810926437378,-2.23,0.22,0.73,2.35
11.292946100234985,-1.4,1.07,0.95,2.0
11.323379039764404,-0.57,1.93,0.31,2.03
11.325652837753296,0.44,3.07,-1.09,3.28
11.327369928359985,2.02,4.24,-2.51,5.32
11.34580397605896,4.16,5.37,-3.73,7.74
11.347602128982544,6.27,6.24,-4.55,9.94
11.35959005355835,7.56,6.42,-4.47,10.87
11.36335802078247,7.63,6.04,-3.77,10.43
11.375365018844604,6.68,5.89,-3.03,9.4
11.383344888687134,5.54,6.84,-3.09,9.32
11.393707036972046,5.61,7.39,-2.23,9.54
11.423181056976318,8.01,6.42,-0.5,10.27
11.424816846847534,10.79,5.58,0.68,12.16
11.426005125045776,11.71,5.82,-0.1,13.07
11.44652795791626,11.28,5.5,-0.77,12.57
11.449043989181519,10.4,4.4,-0.71,11.31
11.459118127822876,9.71,3.16,-1.14,10.27
11.46370005607605,9.81,2.32,-0.74,10.1
11.475680112838745,10.27,1.59,-0.46,10.4
11.483988046646118,10.51,1.17,-1.68,10.7
11.494237184524536,11.64,1.18,-3.99,12.36
11.524102926254272,12.63,2.62,-5.53,14.03
11.525907039642334,12.32,3.48,-6.26,14.25
11.52703595161438,5.95,2.61,-7.04,9.57
11.546619176864624,-10.21,2.93,-3.38,11.14
11.549125909805298,-22.15,9.35,-1.03,24.06
11.559518098831177,-9.38,10.29,-0.71,13.94
11.564560174942017,6.75,3.77,2.0,7.98
11.575801134109497,8.37,4.26,1.41,9.49
11.584511041641235,9.35,9.22,4.16,13.77
11.59500002861023,14.66,1.66,2.34,14.93
11.627348184585571,9.5,-2.97,-1.66,10.09
11.629810094833374,-0.29,-4.15,4.36,6.02
11.631498098373413,-2.21,-3.48,7.76,8.78
11.644428014755249,-0.81,-0.91,3.98,4.16
11.646203994750977,1.03,1.13,-4.45,4.7
11.659376859664917,3.78,2.78,-6.59,8.08
11.664895057678223,5.84,1.55,-3.69,7.07
11.675848007202148,6.03,-0.66,-2.75,6.66
11.685258150100708,4.69,-0.99,-1.92,5.16
11.695727109909058,2.11,-0.36,-0.49,2.19
11.725300073623657,-0.42,0.43,0.64,0.87
11.727581024169922,-1.63,0.58,1.42,2.23
11.729357957839966,-1.21,-0.06,1.84,2.2
11.745301961898804,0.17,-0.34,1.2,1.25
11.747058153152466,1.62,-0.15,0.0,1.62
11.759813070297241,1.9,0.14,-0.61,2.0
11.765542030334473,0.93,0.3,-0.58,1.13
11.775758028030396,-0.42,0.34,-0.35,0.64
11.786039113998413,-1.37,0.34,-0.1,1.41
11.795945882797241,-1.65,0.23,0.1,1.66
11.826374053955078,-1.33,0.05,0.04,1.33
11.828449964523315,-0.84,0.02,0.05,0.84
11.830029010772705,-0.51,0.07,0.05,0.51
11.84546685218811,-0.74,0.05,0.17,0.76
11.846621990203857,-1.21,0.13,0.39,1.27
11.860031843185425,-1.39,0.11,0.61,1.52
11.866153955459595,-1.18,0.12,0.65,1.35
11.876497030258179,-0.96,0.02,0.6,1.13
11.886404037475586,-0.7,0.03,0.53,0.87
11.896642923355103,-0.46,0.82,0.46,1.04
11.930464029312134,-0.58,1.26,0.21,1.4
11.933183908462524,-0.93,1.03,-0.12,1.39
11.934964895248413,-1.14,1.03,-0.7,1.68
11.947477102279663,-1.23,1.16,-1.25,2.1
11.948816061019897,-1.21,0.91,-1.33,2.01
11.959858179092407,-1.13,0.9,-1.21,1.88
11.967000961303711,-1.24,1.21,-0.47,1.79
11.977071046829224,-1.88,1.61,0.3,2.49
11.98697304725647,-2.68,2.08,0.97,3.52
11.99812388420105,-3.21,2.41,1.31,4.22
12.028112173080444,-3.27,2.43,1.07,4.21
12.030288934707642,-2.83,2.33,0.29,3.67
12.031990051269531,-2.35,2.38,-0.11,3.34
12.046374082565308,-2.62,2.56,-0.08,3.66
12.048120975494385,-3.55,3.0,0.34,4.66
12.06040906906128,-4.45,3.51,1.03,5.76
12.06740689277649,-5.14,3.88,1.17,6.54
12.077700853347778,-5.64,4.29,0.92,7.14
12.088252067565918,-6.56,4.96,0.34,8.23
12.097612142562866,-7.92,5.94,-0.11,9.9
12.127447843551636,-10.11,6.5,-0.33,12.02
12.129611015319824,-12.44,6.41,-0.55,14.0
12.131160020828247,-13.96,6.39,-0.51,15.36
12.145084142684937,-14.78,6.42,-0.13,16.11
12.147457838058472,-14.17,6.43,0.69,15.57
12.15979790687561,-11.21,7.12,1.75,13.39
12.16791296005249,-5.54,9.82,2.2,11.48
12.178326845169067,1.76,12.13,2.43,12.49
12.18844485282898,3.89,11.16,5.1,12.87
12.19878888130188,-1.38,8.94,6.86,11.35
12.227995157241821,-6.76,5.78,5.54,10.47
12.230311155319214,-8.78,2.7,4.94,10.42
12.232058048248291,-8.3,0.09,4.4,9.39
12.24431586265564,-6.51,-1.24,4.62,8.07
12.248410940170288,-2.33,-0.16,5.86,6.3
12.260485887527466,5.49,0.62,1.25,5.66
12.268669843673706,10.24,-1.61,0.57,10.38
12.278606176376343,2.06,-1.94,3.61,4.58
12.289111852645874,-5.5,-2.9,4.8,7.85
12.299640893936157,-9.26,-5.66,3.83,11.5
12.329221963882446,-11.63,-7.34,1.16,13.8
12.331373929977417,-11.32,-6.43,-1.33,13.08
12.333063840866089,-8.29,-4.26,-1.74,9.48
12.34555697441101,-5.54,-2.79,-1.17,6.31
12.34867787361145,-4.29,-2.25,-1.02,4.95
12.36050796508789,-3.56,-2.48,-0.96,4.44
12.36940598487854,-2.9,-3.18,-0.79,4.37
12.379479169845581,-2.81,-3.46,-0.96,4.55
12.389878034591675,-3.28,-3.09,-1.37,4.7
12.399903059005737,-3.64,-2.25,-1.37,4.49
12.432255983352661,-3.66,-1.52,-0.81,4.04
12.434388875961304,-3.46,-0.98,-0.25,3.6
12.4360511302948,-2.89,-0.68,0.53,3.01
12.444157838821411,-2.15,-0.55,1.24,2.54
12.449272871017456,-1.66,-0.08,1.27,2.09
12.459778070449829,-0.99,0.9,0.41,1.39
12.469651937484741,0.04,2.09,-0.72,2.21
12.480288982391357,1.14,3.37,-1.37,3.81
12.490380048751831,2.31,4.74,-1.74,5.55
12.50019907951355,3.71,5.95,-1.79,7.23
12.531381845474243,5.05,6.92,-1.41,8.68
12.533596992492676,5.93,7.69,-1.29,9.79
12.535360097885132,6.34,8.14,-1.61,10.44
12.544934034347534,6.76,8.64,-1.68,11.09
12.549843072891235,7.62,8.58,-1.33,11.55
12.560431957244873,7.9,8.42,-0.76,11.57
12.57058310508728,7.51,8.1,-0.66,11.06
12.580651044845581,7.81,6.55,-0.88,10.23
12.590669870376587,9.78,4.48,-2.63,11.07
12.60116696357727,12.84,3.17,-4.16,13.86
12.632343053817749,14.92,2.44,-3.11,15.43
12.634335994720459,15.0,2.1,-2.36,15.32
12.63559103012085,14.32,1.38,-2.94,14.68
12.644354104995728,14.13,0.78,-3.43,14.56
12.650442838668823,14.04,1.51,-3.65,14.58
12.661123991012573,11.36,4.53,-2.81,12.54
12.670937061309814,7.02,4.57,-0.32,8.38
12.681210041046143,-0.63,3.3,-4.46,5.58
12.691756010055542,-15.45,6.05,-0.08,16.59
12.701797008514404,-20.4,11.95,3.05,23.83
12.733077049255371,0.59,9.56,1.82,9.74
12.735214948654175,13.91,4.22,0.17,14.53
12.736847162246704,13.28,4.47,-2.35,14.2
12.743818998336792,10.86,5.78,0.4,12.3
12.751281023025513,12.58,0.56,3.26,13.0
12.76140284538269,9.37,-2.15,-0.55,9.62
12.77164101600647,1.81,-1.81,2.94,3.89
12.781931161880493,-0.38,-2.07,4.33,4.81
12.79234004020691,-0.42,-0.09,2.47,2.5
12.802345037460327,0.23,1.56,-1.27,2.02
12.833595991134644,2.64,1.78,-3.47,4.7
12.836036920547485,4.28,0.69,-2.93,5.23
12.837663888931274,3.91,-0.23,-2.12,4.45
12.843930959701538,2.75,-0.46,-1.61,3.21
12.851599931716919,1.27,-0.1,-0.61,1.41
12.861769914627075,0.09,0.27,0.57,0.63
12.872354984283447,-0.36,0.15,1.28,1.33
12.882577180862427,-0.35,-0.25,1.44,1.5
12.892905950546265,-0.11,-0.41,0.82,0.92
12.902557134628296,0.3,-0.21,-0.14,0.39
12.933495044708252,0.7,0.07,-0.56,0.89
12.935672044754028,0.83,0.14,-0.42,0.94
12.9372079372406,0.28,0.0,-0.12,0.3
12.945405960083008,-0.88,0.01,0.39,0.96
12.952507972717285,-2.05,-0.08,0.63,2.14
12.963292837142944,-2.46,-0.06,0.42,2.49
12.972831010818481,-1.78,0.05,0.02,1.78
12.983039140701294,-0.75,0.2,-0.38,0.86
12.993473052978516,-0.44,0.14,-0.14,0.48
13.003134965896606,-0.98,0.11,0.45,1.08
13.032735109329224,-1.72,0.09,0.74,1.87
13.034395933151245,-1.87,-0.03,0.72,2.0
13.03553318977356,-1.19,-0.14,0.75,1.41
13.044950008392334,-0.66,0.12,0.67,0.94
13.052785158157349,-0.44,0.76,0.41,0.96
13.063472032546997,-0.24,0.9,0.06,0.93
13.073920965194702,-0.38,0.58,0.03,0.69
13.084290027618408,-0.8,0.49,0.14,0.94
13.094467878341675,-0.98,0.66,-0.09,1.18
13.104119062423706,-0.62,0.72,-0.08,0.95
13.134152173995972,-0.44,0.86,0.05,0.96
13.135923147201538,-0.84,1.35,0.16,1.59
13.137055158615112,-1.69,1.84,-0.25,2.51
13.143985033035278,-2.33,2.28,0.09,3.26
13.15369701385498,-2.49,2.48,0.2,3.52
13.163807153701782,-2.6,2.93,0.52,3.95
13.17411494255066,-3.06,3.21,0.45,4.45
13.184366941452026,-3.36,3.11,0.19,4.58
13.19426417350769,-3.61,3.16,0.08,4.79
13.205118894577026,-4.01,3.51,0.28,5.33
13.235984086990356,-4.61,4.06,0.79,6.19
13.23816990852356,-5.61,4.65,1.2,7.38
13.239495992660522,-6.52,5.21,1.52,8.48
13.244181871414185,-7.07,6.3,1.86,9.65
13.254428148269653,-8.23,7.37,2.27,11.27
13.26412296295166,-10.39,7.81,2.13,13.17
13.274760007858276,-13.12,7.87,1.83,15.4
13.284873962402344,-15.74,8.25,1.03,17.8
13.294811010360718,-16.25,8.25,0.82,18.24
13.305887937545776,-14.2,8.39,1.5,16.56
13.337615966796875,-10.08,9.55,1.99,14.02
13.339706182479858,-4.52,11.11,4.82,12.92
13.341356039047241,0.82,12.28,3.43,12.77
13.344444036483765,1.48,9.4,2.93,9.95
13.360190153121948,-2.05,5.12,3.08,6.31
13.364662885665894,-6.81,2.5,3.7,8.14
13.376399993896484,-10.56,0.92,3.54,11.17
13.385585069656372,-11.29,-0.48,5.08,12.38
13.395451068878174,-7.16,-0.53,7.16,10.13
13.406243085861206,0.75,0.61,5.09,5.18
13.437824010848999,7.95,-2.26,-0.21,8.26
13.439898014068604,5.32,-3.57,-1.27,6.53
13.441603899002075,-3.7,-2.65,0.4,4.56
13.445289850234985,-8.67,-3.39,1.6,9.44
13.460861921310425,-11.54,-5.22,1.05,12.7
13.465692043304443,-11.78,-6.16,0.35,13.29
13.476018190383911,-8.38,-5.74,0.11,10.15
13.485953092575073,-4.51,-4.64,0.09,6.47
13.495934963226318,-2.2,-3.82,0.09,4.4
13.50729489326477,-1.19,-3.58,0.1,3.77
13.538971185684204,-1.15,-4.09,0.16,4.25
13.540830850601196,-2.11,-4.63,0.16,5.09
13.542155027389526,-3.3,-4.82,0.4,5.85
13.545654058456421,-4.11,-4.77,0.88,6.35
13.556331872940063,-4.31,-4.1,1.11,6.05
13.566095113754272,-4.24,-3.06,0.98,5.31
13.576475858688354,-3.77,-2.19,1.02,4.47
13.586599111557007,-3.0,-1.46,1.47,3.64
13.59675407409668,-2.04,-0.7,1.82,2.82
13.607215166091919,-1.35,0.53,1.81,2.31
13.63696002960205,-0.63,2.4,1.23,2.76
13.639331102371216,0.69,4.38,0.31,4.44
13.641079187393188,2.48,6.31,-0.38,6.79
13.646116018295288,4.19,7.71,-0.45,8.78
13.660183191299438,5.14,8.4,0.22,9.85
13.666477918624878,5.2,8.83,1.19,10.31
13.676928043365479,4.94,9.37,1.71,10.72
13.687448024749756,5.16,10.13,2.16,11.57
13.697939157485962,5.53,10.14,3.03,11.94
13.707594156265259,5.22,8.59,3.85,10.76
13.738193035125732,4.73,5.65,3.06,7.97
13.740136861801147,6.39,4.2,-0.4,7.65
13.741843938827515,10.8,4.35,-3.12,12.05
13.747069120407104,15.21,4.04,-3.1,16.03
13.756929159164429,17.87,2.82,-3.49,18.42
13.767765998840332,17.94,1.42,-4.64,18.58
13.777520895004272,16.49,0.87,-5.19,17.3
13.787925958633423,14.43,2.09,-4.48,15.25
13.797966957092285,12.02,2.79,-4.1,13.0
13.808804035186768,10.1,4.57,-6.99,13.1
13.839429140090942,5.5,7.73,-17.48,19.88
13.841477155685425,-9.63,13.04,-12.55,20.5
13.84269118309021,-17.36,14.77,0.65,22.8
13.847867012023926,0.77,4.62,0.28,4.69
13.858285188674927,10.47,0.98,-0.56,10.53
13.868335008621216,9.36,8.38,3.24,12.97
13.878484964370728,14.39,5.06,7.77,17.11
13.888582944869995,16.36,-3.98,0.44,16.84
13.89854097366333,4.82,-5.93,6.77,10.2
13.909460067749023,-1.39,-4.62,6.4,8.01
13.940406084060669,-1.74,0.16,-3.11,3.56
13.942320108413696,0.16,3.84,-6.75,7.76
13.94405198097229,4.79,3.61,-4.85,7.71
13.947940111160278,7.81,0.69,-3.92,8.76
13.958693027496338,6.37,-1.31,-3.17,7.23
13.968427896499634,2.48,-0.91,-0.93,2.8
13.979658842086792,-0.87,0.35,2.09,2.29
13.988780975341797,-2.61,0.57,3.48,4.38
13.998898029327393,-2.12,-0.25,3.23,3.87
14.009541034698486,0.15,-0.78,1.64,1.82
14.038405179977417,1.95,-0.47,0.14,2.01
14.04050898551941,2.21,0.0,-0.6,2.29
14.04224705696106,1.02,0.16,-0.49,1.14
14.048497915267944,-0.86,0.26,0.01,0.89
14.058819055557251,-2.21,0.38,0.23,2.25
14.068924188613892,-2.3,0.22,0.29,2.32
14.079981088638306,-1.61,-0.02,0.31,1.63
14.089644193649292,-0.91,0.01,0.27,0.94
14.099756002426147,-0.73,0.03,0.02,0.73
14.109915018081665,-0.92,-0.02,-0.01,0.92
14.13956618309021,-1.1,0.1,0.2,1.12
14.141487836837769,-1.05,0.0,0.46,1.14
14.142596006393433,-0.81,-0.01,0.57,0.99
14.149096012115479,-0.5,0.8,0.56,1.09
14.15979790687561,-0.36,1.28,0.53,1.43
14.170274019241333,-0.62,1.0,0.12,1.18
14.179888010025024,-0.83,1.03,-0.29,1.35
14.190603017807007,-1.04,1.31,-0.57,1.76
14.200201034545898,-1.54,1.25,-0.64,2.08
14.210471868515015,-1.98,1.29,-0.91,2.53
14.24197006225586,-1.98,1.23,-0.63,2.41
14.24454402923584,-2.16,1.21,-0.22,2.48
14.246253967285156,-2.67,1.54,0.28,3.09
14.263646841049194,-3.12,1.88,0.66,3.7
14.266108989715576,-3.27,2.29,0.85,4.08
14.277412176132202,-3.37,2.73,0.91,4.43
14.28060793876648,-3.59,2.88,0.68,4.65
14.292971849441528,-3.59,2.89,0.09,4.6
14.30086898803711,-3.42,2.96,-0.24,4.52
14.310907125473022,-3.89,3.1,-0.18,4.97
14.341063022613525,-4.78,3.49,0.56,5.94
14.34282898902893,-5.79,4.28,1.34,7.32
14.34396505355835,-6.95,5.29,1.93,8.94
14.364463090896606,-8.46,6.65,2.25,10.99
14.366908073425293,-10.74,7.85,2.24,13.49
14.377344846725464,-13.95,8.15,1.53,16.22
14.381509065628052,-16.03,8.18,0.46,18.0
14.39375615119934,-15.84,8.27,-0.24,17.87
14.40140986442566,-14.49,8.23,0.13,16.66
14.411853075027466,-10.43,9.62,1.15,14.23
14.443150997161865,-3.83,12.01,3.11,12.98
14.44513487815857,2.22,12.71,3.43,13.35
14.446702003479004,2.8,10.29,3.69,11.28
14.46387791633606,-1.36,6.29,4.17,7.66
14.465606927871704,-6.46,3.0,4.26,8.29
14.477638959884644,-10.09,1.09,4.22,10.99
14.481976985931396,-10.77,-0.51,5.27,12.0
14.493696928024292,-6.92,-0.53,6.88,9.77
14.502023935317993,1.2,0.85,2.94,3.28
14.512449979782104,8.99,-0.63,-0.22,9.01
14.543549060821533,5.55,-2.96,0.45,6.3
14.545645952224731,-3.84,-2.94,2.54,5.46
14.547296047210693,-8.86,-4.2,3.67,10.46
14.564727067947388,-11.32,-6.33,2.64,13.23
14.567193984985352,-10.76,-7.22,0.45,12.96
14.576495885848999,-7.61,-5.93,-1.13,9.71
14.58263087272644,-4.58,-4.17,-1.32,6.33
14.594091176986694,-3.19,-3.5,-0.75,4.79
14.602910041809082,-3.07,-3.63,-0.04,4.75
14.612967014312744,-2.96,-4.36,0.55,5.29
14.642407178878784,-2.73,-5.13,0.59,5.84
14.644160032272339,-2.74,-5.31,0.34,5.98
14.645307064056396,-2.91,-4.84,0.09,5.64
14.66450810432434,-2.99,-3.74,-0.12,4.78
14.6666100025177,-3.13,-2.53,-0.34,4.03
14.678025007247925,-3.2,-1.57,-0.41,3.58
14.682911157608032,-2.92,-0.9,0.05,3.05
14.693915128707886,-2.11,-0.45,0.86,2.32
14.703166007995605,-0.98,0.31,1.14,1.53
14.713296175003052,0.1,1.58,0.54,1.67
14.744179010391235,0.94,3.4,-0.66,3.58
14.746397972106934,1.95,5.35,-1.98,6.02
14.747606039047241,3.39,6.9,-2.83,8.19
14.763825178146362,4.81,7.58,-2.63,9.35
14.765473127365112,5.54,7.98,-1.5,9.82
14.777706861495972,5.71,8.79,-0.62,10.5
14.783446073532104,5.86,9.57,-0.52,11.23
14.794150114059448,5.82,9.76,-0.05,11.36
14.803956031799316,5.75,8.82,1.64,10.65
14.814324140548706,5.63,6.65,3.08,9.24
14.844797849655151,6.21,4.81,0.72,7.88
14.846935987472534,9.7,4.62,-2.8,11.1
14.848425149917603,14.47,4.21,-2.12,15.21
14.86353611946106,17.05,3.57,-1.96,17.52
14.86528205871582,17.61,2.51,-3.59,18.14
14.877185106277466,17.64,1.27,-4.61,18.27
14.88413119316101,17.62,1.9,-5.19,18.46
14.894373178482056,14.22,3.19,-4.57,15.27
14.904587984085083,9.06,3.86,-6.34,11.71
14.91496205329895,-1.64,3.35,-12.5,13.04
14.946117162704468,-19.82,9.65,-9.53,24.01
14.948375940322876,-20.98,15.24,-1.55,25.97
14.950147867202759,2.76,4.02,2.62,5.53
14.963746070861816,12.07,1.65,1.2,12.24
14.965688943862915,12.12,11.28,5.33,17.39
14.978419065475464,18.16,7.06,3.78,19.84
14.9845449924469,20.3,-3.23,-5.94,21.39
14.996022939682007,3.28,-6.14,3.72,7.89
15.004822015762329,-3.32,-5.15,9.72,11.49
15.015145063400269,-2.81,-1.93,7.36,8.11
15.044645071029663,-2.77,1.65,-2.76,4.24
15.046963930130005,1.09,4.07,-8.57,9.54
15.048709154129028,6.35,2.25,-5.15,8.47
15.063935995101929,8.0,-0.6,-2.96,8.55
15.065820932388306,6.64,-1.52,-2.26,7.17
15.079149961471558,3.14,-0.89,-0.45,3.29
15.085912942886353,-0.41,0.33,0.6,0.79
15.097261190414429,-1.92,0.46,2.05,2.84
15.1056649684906,-1.89,-0.23,2.71,3.31
15.115937948226929,-0.84,-0.48,1.52,1.8
15.146564960479736,0.52,-0.15,-0.35,0.64
15.149008989334106,1.49,0.2,-1.21,1.92
15.150717973709106,1.54,0.27,-1.22,1.98
15.162174940109253,0.41,0.26,-0.88,1.0
15.165361166000366,-1.18,0.29,-0.17,1.22
15.178261995315552,-2.31,0.26,0.59,2.39
15.185845136642456,-2.59,0.13,0.68,2.68
15.196489095687866,-1.94,0.09,0.54,2.01
15.206251859664917,-0.82,0.15,0.42,0.93
15.216629981994629,-0.22,0.04,0.38,0.44
15.246790170669556,-0.56,0.01,0.53,0.77
15.248877048492432,-1.51,0.07,0.69,1.66
15.250539064407349,-2.06,0.02,0.71,2.17
15.263488054275513,-1.77,0.18,0.75,1.93
15.266018152236938,-1.01,1.12,0.45,1.57
15.27849006652832,-0.81,1.3,0.26,1.55
15.286489009857178,-1.39,0.87,0.21,1.65
15.29678201675415,-1.95,0.65,0.28,2.07
15.307090044021606,-2.04,0.62,-0.29,2.15
15.31732702255249,-1.75,1.12,-0.82,2.23
15.349383115768433,-1.66,1.63,-0.87,2.48
15.351930856704712,-1.86,1.97,-0.59,2.77
15.353564977645874,-2.56,2.43,0.16,3.53
15.363478899002075,-3.27,2.7,0.61,4.28
15.367073059082031,-3.35,2.69,0.94,4.39
15.378061056137085,-3.04,2.61,0.56,4.04
15.387531995773315,-2.75,3.0,0.07,4.07
15.397445917129517,-3.1,3.47,0.16,4.65
15.408709049224854,-4.2,3.82,0.41,5.69
15.41786789894104,-5.42,4.28,0.55,6.92
15.449055910110474,-6.06,4.71,0.48,7.69
15.451152086257935,-6.12,5.26,0.1,8.07
15.452799081802368,-6.62,6.31,0.01,9.14
15.46226191520691,-8.75,7.27,0.25,11.37
15.467197179794312,-12.27,7.67,0.3,14.47
15.479058980941772,-14.98,8.14,0.11,17.04
15.487931966781616,-15.74,8.56,0.14,17.91
15.497997999191284,-14.99,8.36,0.72,17.17
15.508404970169067,-13.15,8.66,1.56,15.82
15.518509149551392,-7.78,9.8,1.68,12.62
15.549672842025757,-0.84,11.52,2.59,11.83
15.551820993423462,3.19,11.38,3.25,12.25
15.553444147109985,0.34,8.61,4.96,9.94
15.562643051147461,-5.14,5.02,4.68,8.57
15.568088054656982,-9.06,2.32,4.31,10.29
15.578439950942993,-11.02,0.34,4.14,11.77
15.588361978530884,-10.14,-1.03,5.46,11.56
15.598613977432251,-5.07,-0.13,7.28,8.87
15.608689069747925,3.27,0.35,3.43,4.75
15.619596004486084,10.25,-1.02,-0.8,10.33
15.649336099624634,6.63,-2.31,0.13,7.02
15.651530981063843,-2.67,-2.49,2.13,4.22
15.653167009353638,-7.57,-3.98,3.52,9.24
15.66304087638855,-10.68,-6.1,2.51,12.55
15.668718099594116,-11.64,-7.12,-0.1,13.64
15.67906403541565,-9.78,-5.75,-1.66,11.46
15.689164876937866,-6.66,-3.81,-1.49,7.81
15.69923710823059,-4.35,-3.07,-0.67,5.36
15.709465026855469,-3.15,-3.31,-0.24,4.57
15.720075845718384,-2.26,-4.08,-0.22,4.66
15.750746965408325,-1.69,-4.76,-0.44,5.07
15.752856016159058,-1.79,-4.98,-0.67,5.33
15.754279851913452,-2.35,-4.63,-0.85,5.26
15.762550115585327,-2.96,-3.66,-1.0,4.81
15.7692711353302,-3.56,-2.55,-0.84,4.45
15.779520988464355,-3.81,-1.77,-0.19,4.2
15.789546012878418,-3.58,-1.14,0.87,3.85
15.799754858016968,-2.93,-0.36,1.75,3.43
15.809960126876831,-2.04,0.78,1.85,2.86
15.820302963256836,-0.78,2.29,1.04,2.63
15.851698160171509,1.09,4.05,-0.33,4.2
15.854063987731934,3.18,5.74,-1.55,6.74
15.855682134628296,4.81,6.93,-1.98,8.66
15.862390041351318,5.69,7.71,-1.61,9.71
15.86958909034729,6.17,8.24,-0.8,10.32
15.87996506690979,6.51,8.57,-0.23,10.76
15.890215158462524,6.53,8.66,-0.05,10.84
15.900481939315796,6.04,8.39,0.41,10.34
15.910374879837036,5.37,7.81,1.32,9.56
15.920913934707642,5.16,6.9,2.14,8.87
15.9512619972229,5.89,5.3,1.6,8.08
15.953511953353882,8.24,3.98,-0.68,9.17
15.955265045166016,12.08,3.45,-2.32,12.77
15.962812185287476,15.36,3.05,-2.47,15.85
15.970197916030884,16.49,2.56,-2.71,16.9
15.981128931045532,15.97,1.9,-3.82,16.53
15.991123914718628,15.61,1.54,-4.81,16.4
16.001147031784058,14.9,2.32,-4.97,15.87
16.01279902458191,12.46,3.22,-4.52,13.64
16.02148199081421,9.94,5.29,-6.94,13.22
16.0528461933136,0.95,6.57,-10.51,12.43
16.055005073547363,-16.12,10.55,-2.32,19.4
16.05648684501648,-21.27,13.25,4.08,25.38
16.06228804588318,-0.33,3.89,2.04,4.4
16.07113003730774,10.55,-1.02,0.42,10.6
16.081462144851685,8.48,3.3,0.16,9.1
16.091758012771606,11.11,6.44,9.9,16.21
16.10140895843506,18.98,-1.01,5.75,19.85
16.111752033233643,14.18,-1.34,-1.88,14.36
16.121981859207153,-0.52,-3.02,2.88,4.2
16.152127027511597,-4.05,-1.3,0.71,4.31
16.154380083084106,-2.52,1.38,-3.87,4.81
16.156072854995728,1.71,2.48,-5.36,6.14
16.162917852401733,6.47,1.68,-3.48,7.53
16.171640157699585,7.06,-0.17,-2.6,7.52
16.18184995651245,4.34,-1.16,-1.75,4.82
16.19246792793274,1.11,-0.53,-0.02,1.23
16.202192068099976,-0.96,0.32,1.65,1.93
16.212298154830933,-1.54,0.21,2.68,3.09
16.22267985343933,-1.12,-0.35,2.24,2.52
16.254332065582275,0.25,-0.51,0.89,1.05
16.256422996520996,1.76,-0.35,-0.03,1.79
16.2575581073761,1.99,-0.1,-0.58,2.07
16.26265001296997,1.07,0.16,-0.43,1.16
16.272237062454224,-0.24,0.26,-0.06,0.35
16.2821261882782,-1.3,0.27,0.17,1.33
16.293065071105957,-1.83,0.1,0.38,1.87
16.302865028381348,-1.64,0.0,0.2,1.65
16.312884092330933,-0.82,0.04,0.11,0.82
16.323426008224487,-0.23,0.13,0.03,0.26
16.35490107536316,-0.3,0.24,0.03,0.38
16.35684895515442,-0.69,0.21,0.25,0.76
16.35822892189026,-0.93,0.16,0.42,1.03
16.362573862075806,-1.13,0.13,0.36,1.19
16.37792706489563,-1.11,0.23,0.41,1.2
16.382861852645874,-0.79,0.58,0.47,1.08
16.394572019577026,-0.77,1.04,0.36,1.34
16.403472185134888,-1.25,1.03,0.31,1.64
16.413395166397095,-1.76,0.61,0.11,1.86
16.42388606071472,-2.22,0.54,-0.13,2.28
16.455092191696167,-2.4,0.96,-0.8,2.7
16.45706605911255,-2.36,1.44,-0.83,2.88
16.458256006240845,-2.45,1.99,-0.41,3.18
16.462965965270996,-2.71,2.6,0.16,3.75
16.47818899154663,-3.12,2.9,0.55,4.29
16.483651876449585,-3.24,2.73,0.62,4.28
16.494513988494873,-2.89,2.62,0.27,3.91
16.503898859024048,-2.42,2.83,0.06,3.72
16.51406502723694,-2.63,3.07,0.12,4.04
16.524483919143677,-3.39,3.43,0.43,4.84
16.555166959762573,-4.3,3.91,0.91,5.88
16.557102918624878,-5.23,4.26,1.05,6.82
16.558366060256958,-6.02,4.55,0.67,7.57
16.563503980636597,-6.42,5.06,0.16,8.17
16.578076124191284,-7.41,6.0,-0.16,9.53
16.58403515815735,-9.68,6.84,-0.19,11.85
16.59431505203247,-12.98,7.38,-0.03,14.93
16.60500693321228,-14.94,7.59,0.16,16.75
16.614585161209106,-14.64,7.77,0.53,16.58
16.6256000995636,-13.22,7.81,1.14,15.39
16.657968997955322,-10.46,8.7,2.24,13.78
16.659920930862427,-4.66,10.63,3.57,12.14
16.6616108417511,1.68,12.8,3.6,13.4
16.664078950881958,2.52,12.84,5.66,14.25
16.674290895462036,-1.72,8.97,7.59,11.87
16.68477511405945,-5.07,4.98,6.57,9.67
16.694982051849365,-6.46,2.85,5.91,9.2
16.705405950546265,-6.71,0.95,7.8,10.33
16.7152578830719,-4.82,0.55,8.06,9.4
16.72558903694153,-0.67,0.52,4.11,4.19
16.756988048553467,0.67,-0.57,1.15,1.44
16.759281873703003,-4.59,-0.75,2.36,5.21
16.761049032211304,-9.3,-2.18,2.7,9.92
16.764696836471558,-10.45,-3.93,0.89,11.19
16.774859189987183,-8.71,-4.19,-2.19,9.91
16.785387992858887,-5.09,-3.74,-4.21,7.59
16.795562982559204,-2.45,-3.41,-3.96,5.77
16.805907011032104,-1.95,-3.62,-2.44,4.78
16.816027879714966,-2.29,-4.36,-1.07,5.03
16.825870037078857,-2.35,-5.2,-0.48,5.72
16.855980157852173,-2.34,-5.78,-0.39,6.24
16.857645988464355,-2.77,-6.08,-0.35,6.69
16.85879898071289,-3.66,-6.07,-0.27,7.09
16.865761041641235,-4.88,-5.8,0.18,7.58
16.878485918045044,-6.0,-5.25,0.99,8.03
16.886263132095337,-6.63,-4.33,1.6,8.07
16.896520853042603,-6.61,-2.72,1.83,7.37
16.906916856765747,-5.97,-0.91,2.33,6.47
16.916521072387695,-5.2,0.95,2.87,6.01
16.927114009857178,-4.32,2.65,2.83,5.8
16.95908284187317,-3.05,3.79,2.01,5.26
16.961021184921265,-1.55,5.18,0.56,5.43
16.962380170822144,0.39,7.02,-1.58,7.2
16.98335099220276,3.61,7.81,-4.23,9.58
16.985431909561157,7.27,7.28,-6.22,12.02
16.99541687965393,9.67,6.32,-6.31,13.16
16.99825096130371,9.76,5.99,-6.17,13.0
17.011232137680054,8.29,5.98,-6.1,11.9
17.017356157302856,6.7,5.86,-5.16,10.28
17.030823945999146,6.15,5.74,-3.86,9.25
17.056886911392212,6.86,5.38,-2.41,9.04
17.05854296684265,9.23,5.32,-1.83,10.8
17.05968403816223,12.84,5.95,-2.68,14.4
17.06687092781067,15.63,6.01,-3.24,17.05
17.077039003372192,16.09,4.84,-2.16,16.94
17.087011098861694,14.29,3.56,-0.17,14.72
17.097432851791382,11.77,3.0,0.45,12.15
17.107346057891846,10.49,2.72,0.1,10.83
17.117954969406128,10.96,2.1,-0.06,11.15
17.12788200378418,12.48,1.34,-1.06,12.59
17.15820598602295,13.06,1.71,-2.96,13.49
17.160362005233765,11.45,3.12,-4.61,12.73
17.16218900680542,4.95,3.06,-6.87,9.0
17.167428016662598,-13.74,5.11,-2.45,14.86
17.177814960479736,-28.39,14.12,-0.07,31.7
17.187455892562866,-10.31,11.14,-1.65,15.26
17.197983026504517,7.64,1.41,1.4,7.89
17.20827007293701,7.58,1.3,1.01,7.75
17.21855616569519,8.27,7.57,6.05,12.73
17.228339910507202,14.76,3.89,13.02,20.06
17.259252071380615,21.06,-1.45,-1.51,21.16
17.261194944381714,7.82,-2.39,0.58,8.19
17.262884855270386,-4.47,-4.02,6.6,8.92
17.282365083694458,-4.25,-1.48,2.12,4.97
17.284834146499634,-0.76,1.05,-6.83,6.95
17.294862031936646,4.18,3.01,-8.58,10.0
17.298508882522583,7.45,2.34,-4.36,8.94
17.31104302406311,6.76,-0.07,-3.08,7.42
17.31880784034729,3.98,-1.31,-1.23,4.36
17.32884407043457,1.02,-0.89,1.13,1.76
17.358702898025513,-1.06,0.03,2.35,2.57
17.36030411720276,-1.55,0.14,2.84,3.23
17.361470937728882,-0.58,-0.29,2.46,2.54
17.368324041366577,1.09,-0.49,0.75,1.41
17.379070043563843,2.52,-0.27,-0.58,2.59
17.388574838638306,2.51,0.07,-1.17,2.77
17.399208068847656,0.88,0.39,-1.04,1.41
17.409394025802612,-1.02,0.43,-0.05,1.1
17.41934895515442,-2.29,0.14,0.64,2.38
17.42988610267639,-2.54,0.02,0.59,2.6
17.459949016571045,-1.69,-0.03,0.35,1.72
17.461897134780884,-0.58,0.02,0.01,0.58
17.463616132736206,-0.12,0.22,-0.08,0.26
17.48348307609558,-0.47,0.17,0.31,0.58
17.4858660697937,-1.3,0.06,0.56,1.41
17.495409965515137,-1.81,-0.11,0.73,1.95
17.4996280670166,-1.67,-0.07,0.7,1.81
17.51189684867859,-1.2,0.15,0.74,1.41
17.5199191570282,-0.69,1.01,0.65,1.38
17.530889987945557,-0.82,1.48,0.49,1.76
17.56338095664978,-1.58,1.06,0.3,1.92
17.56598687171936,-2.2,0.58,0.36,2.3
17.567708015441895,-2.11,0.34,-0.33,2.16
17.581002950668335,-1.89,0.77,-0.65,2.14
17.582736015319824,-1.96,1.52,-1.01,2.67
17.596740007400513,-2.13,2.04,-0.4,2.97
17.600367069244385,-2.62,2.48,-0.05,3.6
17.612022161483765,-2.94,2.76,0.08,4.03
17.620727062225342,-2.85,2.64,0.12,3.88
17.630863904953003,-2.38,2.57,-0.14,3.5
17.66106915473938,-2.03,2.69,-0.12,3.37
17.6633620262146,-2.5,2.96,0.27,3.88
17.66516089439392,-3.66,3.38,0.88,5.05
17.683358907699585,-4.65,3.78,1.41,6.15
17.685096979141235,-5.28,4.21,1.18,6.85
17.695734977722168,-5.69,4.66,0.48,7.37
17.700890064239502,-6.17,5.36,-0.19,8.17
17.711753129959106,-7.75,6.02,-0.55,9.82
17.720918893814087,-10.24,6.46,-1.08,12.15
17.731337070465088,-12.58,7.16,-1.05,14.51
17.760370016098022,-14.25,7.95,-0.66,16.33
17.762696981430054,-13.72,8.26,0.2,16.01
17.76448702812195,-11.79,7.91,1.44,14.27
17.783071994781494,-8.99,8.54,2.12,12.57
17.7848641872406,-3.98,10.21,3.4,11.47
17.79554796218872,1.35,11.62,2.59,11.98
17.80108904838562,0.92,10.54,3.7,11.2
17.81195616722107,-4.28,6.72,5.13,9.47
17.821590185165405,-9.05,3.43,5.26,11.01
17.83186411857605,-11.35,1.07,4.79,12.36
17.861649990081787,-11.19,-0.73,4.92,12.24
17.86369299888611,-7.79,-1.0,6.6,10.25
17.864891052246094,-1.44,1.09,5.58,5.86
17.882429838180542,5.87,-0.08,0.16,5.87
17.883166074752808,5.48,-1.28,0.7,5.67
17.8956139087677,-2.48,-1.14,3.61,4.52
17.901965856552124,-7.68,-2.7,4.4,9.25
17.91235089302063,-10.78,-5.19,3.71,12.52
17.922537088394165,-11.96,-6.14,1.56,13.53
17.932862043380737,-9.65,-5.1,-0.54,10.92
17.964972972869873,-6.02,-3.53,-0.98,7.04
17.96744990348816,-4.06,-2.34,-0.72,4.74
17.969125986099243,-3.23,-1.99,-0.73,3.86
17.983876943588257,-2.6,-2.39,-0.57,3.57
17.98667001724243,-2.28,-3.16,-0.13,3.89
17.995468854904175,-2.24,-3.6,-0.07,4.24
18.002898931503296,-2.3,-3.39,-0.36,4.11
18.012941122055054,-2.32,-2.82,-0.48,3.68
18.023060083389282,-2.31,-2.06,-0.5,3.13
18.03308892250061,-2.28,-1.36,-0.07,2.65
18.064141988754272,-2.06,-0.56,0.46,2.18
18.06645703315735,-1.35,0.33,0.64,1.53
18.067803144454956,-0.36,1.43,0.15,1.48
18.083029985427856,1.12,2.82,-0.96,3.18
18.084329843521118,2.84,4.22,-1.82,5.4
18.099032163619995,4.14,5.34,-2.25,7.12
18.103545904159546,4.79,6.11,-2.26,8.08
18.11333703994751,5.06,6.68,-1.42,8.49
18.123626947402954,5.26,7.42,-0.57,9.11
18.133702039718628,5.81,8.25,-0.29,10.09
18.163506984710693,6.94,8.88,-0.39,11.27
18.16545295715332,7.86,9.01,0.19,11.95
18.166579961776733,8.15,8.46,1.43,11.83
18.184246063232422,8.46,6.67,2.18,10.99
18.186546087265015,9.76,4.99,0.33,10.96
18.195185899734497,12.43,4.29,-2.12,13.31
18.204137086868286,14.75,4.03,-2.12,15.43
18.214184045791626,15.2,3.73,-2.43,15.83
18.224254846572876,14.73,2.57,-3.58,15.37
18.234987020492554,15.01,1.57,-4.17,15.65
18.26634907722473,16.04,1.46,-4.51,16.72
18.268840074539185,15.36,2.63,-4.66,16.26
18.270464181900024,10.91,2.63,-4.01,11.91
18.28004002571106,6.45,2.84,-7.96,10.63
18.284003019332886,-5.0,3.83,-9.95,11.77
18.295165061950684,-22.49,10.08,-5.78,25.31
18.304280996322632,-18.93,11.24,-2.86,22.2
18.31474804878235,3.89,2.16,-0.61,4.49
18.325122117996216,10.49,0.6,-0.46,10.51
18.334913969039917,7.68,6.19,0.35,9.87
18.365972995758057,10.45,8.73,10.34,17.09
18.36806893348694,17.98,-1.1,5.86,18.94
18.369340181350708,14.4,-2.21,-1.53,14.64
18.381405115127563,-1.22,-3.59,5.72,6.86
18.38469386100769,-5.66,-2.28,6.23,8.72
18.396190881729126,-4.07,0.66,-1.04,4.25
18.40525507926941,0.25,2.7,-8.03,8.47
18.415933847427368,5.71,2.6,-6.41,8.96
18.426207065582275,7.55,0.65,-3.05,8.16
18.435832023620605,6.07,-1.07,-2.45,6.63
18.46704411506653,3.07,-1.15,-0.23,3.28
18.469148874282837,-0.29,-0.23,1.81,1.84
18.470752000808716,-2.44,0.44,2.63,3.61
18.480490922927856,-2.66,0.13,2.81,3.87
18.48514485359192,-1.02,-0.36,1.96,2.23
18.49612307548523,1.06,-0.38,-0.02,1.12
18.50566005706787,2.34,-0.14,-1.1,2.58
18.51599407196045,2.14,0.13,-0.93,2.33
18.526294946670532,0.55,0.19,-0.2,0.61
18.536282062530518,-1.45,0.15,0.46,1.52
18.56675887107849,-2.67,0.1,0.91,2.82
18.5690438747406,-2.66,0.04,0.74,2.76
18.570778131484985,-1.7,0.0,0.16,1.7
18.58256506919861,-0.67,0.15,-0.33,0.76
18.585973978042603,-0.32,0.25,-0.22,0.46
18.59753108024597,-0.58,0.09,0.16,0.6
18.606433153152466,-1.03,0.05,0.37,1.09
18.616464853286743,-1.15,0.05,0.58,1.28
18.62716794013977,-0.96,0.19,0.75,1.23
18.637244939804077,-0.69,0.79,0.5,1.16
18.66960310935974,-0.39,1.02,0.28,1.12
18.671788930892944,-0.59,0.73,0.01,0.93
18.673497915267944,-0.89,0.68,-0.07,1.12
18.680609941482544,-1.16,0.76,-0.05,1.38
18.686357975006104,-1.38,0.89,-0.38,1.68
18.696805000305176,-1.63,1.09,-0.67,2.07
18.706943035125732,-1.79,1.48,-0.66,2.41
18.717210054397583,-1.9,1.68,-0.28,2.55
18.727750062942505,-2.16,1.89,0.12,2.87
18.737365007400513,-2.44,2.11,0.48,3.26
18.767781972885132,-2.65,2.08,0.48,3.4
18.76978302001953,-2.59,2.05,0.22,3.31
18.771313905715942,-2.23,2.19,-0.09,3.12
18.780143976211548,-2.19,2.32,0.0,3.19
18.786924123764038,-2.85,2.57,0.4,3.85
18.797396898269653,-3.95,2.96,1.02,5.04
18.807571172714233,-4.99,3.5,1.2,6.21
18.817858934402466,-5.47,3.99,0.85,6.82
18.82835602760315,-5.38,4.54,0.21,7.04
18.837815046310425,-5.99,5.59,-0.23,8.19
18.868834972381592,-7.29,6.35,-0.23,9.67
18.870831966400146,-9.49,6.71,-0.04,11.62
18.872474908828735,-12.13,7.35,0.06,14.18
18.880226850509644,-13.76,7.65,0.13,15.74
18.8875470161438,-12.59,6.49,0.47,14.17
18.89776301383972,-11.57,6.4,1.23,13.27
18.90814518928528,-10.0,8.16,1.02,12.94
18.91836905479431,-4.95,8.64,1.37,10.05
18.928766012191772,0.54,9.16,1.28,9.26
18.938899993896484,1.29,9.43,3.05,9.99
18.969000101089478,-2.22,6.24,5.13,8.37
18.971277952194214,-6.4,2.97,4.82,8.54
18.973178148269653,-9.04,1.2,4.19,10.03
18.98030686378479,-9.69,0.21,4.03,10.49
18.98845410346985,-7.29,-0.15,5.22,8.96
18.998390913009644,-0.72,1.7,6.01,6.28
19.008903980255127,7.69,1.2,1.49,7.92
19.0193510055542,9.78,-1.1,-0.25,9.84
19.02896285057068,0.55,-0.84,2.8,2.97
19.039769887924194,-6.34,-2.29,4.14,7.91
19.069576025009155,-11.27,-4.87,3.83,12.86
19.0718891620636,-14.92,-5.86,3.61,16.43
19.07309603691101,-14.29,-4.63,2.74,15.26
19.08136487007141,-9.41,-2.93,2.23,10.1
19.08850407600403,-5.95,-1.7,1.94,6.48
19.098896026611328,-4.48,-1.36,1.09,4.8
19.1095449924469,-3.89,-1.52,0.53,4.2
19.119323015213013,-3.75,-1.75,0.05,4.13
19.12944006919861,-3.61,-1.75,-0.61,4.05
19.14011788368225,-2.88,-1.44,-1.22,3.44
19.169689893722534,-1.97,-0.87,-1.35,2.54
19.171995878219604,-1.41,-0.34,-1.11,1.82
19.173743963241577,-1.16,-0.11,-0.86,1.44
19.1804940700531,-0.93,-0.02,-0.71,1.17
19.190169095993042,-0.37,0.25,-0.88,0.98
19.199506044387817,0.49,0.72,-1.38,1.63
19.2101309299469,1.52,1.34,-1.99,2.84
19.220123052597046,2.59,2.01,-2.46,4.09
19.23019814491272,3.47,2.68,-2.53,5.06
19.240395069122314,3.97,3.24,-2.29,5.61
19.2723228931427,3.9,3.58,-1.83,5.6
19.27461004257202,3.5,4.34,-1.52,5.77
19.27642297744751,3.73,5.48,-1.71,6.84
19.28128695487976,4.87,6.29,-1.55,8.1
19.297221899032593,6.41,6.82,-0.87,9.39
19.300464868545532,7.9,7.45,-0.13,10.85
19.312494039535522,8.61,8.05,0.52,11.79
19.320821046829224,8.64,7.73,1.01,11.63
19.330780029296875,8.92,5.64,1.45,10.65
19.341428995132446,9.74,3.15,0.71,10.26
19.372828006744385,10.95,2.12,-1.02,11.19
19.3748300075531,11.93,2.48,-0.69,12.2
19.376111030578613,12.32,3.14,-0.88,12.74
19.380768060684204,12.78,2.59,-2.68,13.31
19.39643096923828,14.2,1.71,-3.03,14.62
19.400938987731934,17.38,1.41,-3.77,17.83
19.412605047225952,16.64,3.23,-4.2,17.46
19.421359062194824,9.13,5.02,-6.77,12.42
19.431447982788086,-5.37,7.08,-9.5,13.0
19.441982984542847,-20.38,17.86,-2.23,27.19
19.47288489341736,-10.87,15.8,0.73,19.19
19.474914073944092,8.96,3.16,1.57,9.62
19.476754903793335,13.15,3.23,1.85,13.66
19.48107600212097,13.67,0.83,0.23,13.69
19.496483087539673,10.91,-4.13,-2.03,11.84
19.501554012298584,4.77,-3.86,3.08,6.86
19.51288914680481,3.32,-3.72,6.91,8.52
19.522114038467407,2.12,-1.29,5.11,5.68
19.53206515312195,-0.64,1.38,0.04,1.52
19.542073965072632,-1.33,3.18,-3.81,5.13
19.575445890426636,1.47,2.05,-3.97,4.7
19.577457189559937,4.95,-0.29,-3.15,5.87
19.578913927078247,6.3,-1.06,-2.9,7.01
19.581538915634155,4.9,-0.7,-2.04,5.35
19.591735124588013,2.25,-0.17,-0.5,2.31
19.60206389427185,0.0,0.34,0.97,1.02
19.612321138381958,-1.26,0.26,2.21,2.55
19.622599840164185,-1.64,-0.16,2.53,3.01
19.632692098617554,-1.07,-0.33,1.65,1.99
19.64291214942932,0.37,-0.26,0.26,0.52
19.67485499382019,1.34,0.06,-0.69,1.5
19.676565885543823,1.21,0.31,-0.7,1.43
19.677700996398926,0.21,0.32,-0.26,0.46
19.68206810951233,-0.97,0.2,0.5,1.1
19.692656993865967,-1.84,0.01,0.96,2.07
19.70305895805359,-2.15,0.0,0.91,2.33
19.71321988105774,-1.83,0.14,0.56,1.91
19.72312903404236,-1.02,0.2,0.1,1.04
19.73311686515808,-0.4,0.2,-0.01,0.44
19.74395489692688,-0.36,0.24,0.14,0.45
19.774779081344604,-0.8,0.14,0.42,0.91
19.77697491645813,-1.29,0.14,0.37,1.34
19.778172969818115,-0.95,0.03,0.55,1.09
19.782816171646118,-0.44,0.36,0.72,0.91
19.79323410987854,-0.3,1.24,0.41,1.34
19.803040981292725,-0.31,1.18,0.01,1.22
19.81391215324402,-0.54,0.84,-0.25,1.02
19.823886156082153,-1.02,1.11,-0.62,1.63
19.83396887779236,-1.47,1.24,-0.67,2.03
19.8443660736084,-1.8,1.25,-0.83,2.34
19.874694108963013,-1.86,1.34,-0.74,2.4
19.877012014389038,-2.11,1.5,-0.35,2.61
19.878793001174927,-2.54,1.74,0.07,3.07
19.883589029312134,-2.95,2.09,0.54,3.65
19.89351201057434,-3.19,2.28,0.83,4.0
19.90426206588745,-3.2,2.16,0.8,3.94
19.914541959762573,-3.0,2.26,0.38,3.77
19.92462396621704,-2.89,2.55,0.15,3.85
19.934716939926147,-3.12,2.63,0.42,4.1
19.945301055908203,-3.93,2.83,1.15,4.97
19.97628617286682,-5.01,3.29,1.66,6.21
19.97816801071167,-5.69,3.94,1.28,7.03
19.979279041290283,-5.68,4.94,0.52,7.54
19.983887910842896,-6.22,5.76,-0.15,8.47
19.99427103996277,-8.08,5.99,-0.61,10.07
20.00420594215393,-10.63,6.56,-0.68,12.5
20.014725923538208,-13.12,7.41,-0.47,15.07
20.025091886520386,-13.91,8.21,0.06,16.15
20.035176992416382,-13.14,8.87,1.2,15.89
20.04578709602356,-11.69,9.32,2.16,15.1
20.076745986938477,-7.89,9.64,3.18,12.85
20.079190969467163,-1.89,10.63,3.29,11.28
20.081099033355713,2.45,11.84,2.32,12.31
20.08457112312317,-0.31,10.58,5.09,11.74
20.094990968704224,-5.39,7.01,5.93,10.64
20.104856967926025,-8.82,3.63,6.15,11.34
20.115386962890625,-9.97,1.57,5.33,11.41
20.125545024871826,-8.78,0.27,5.96,10.61
20.135643005371094,-4.68,0.64,7.17,8.58
20.145745038986206,2.21,1.03,2.88,3.77
20.17587685585022,8.95,-0.85,-1.13,9.06
20.178003072738647,4.9,-0.99,1.34,5.17
20.179786920547485,-3.99,-0.8,2.99,5.04
20.185059070587158,-8.4,-3.07,3.35,9.55
20.195554971694946,-11.03,-5.14,2.03,12.33
20.20542597770691,-11.02,-5.73,0.0,12.42
20.215960025787354,-7.8,-5.08,-1.23,9.38
20.22678303718567,-4.65,-3.93,-1.37,6.24
20.23623013496399,-3.48,-3.47,-1.16,5.04
20.24633288383484,-3.51,-3.59,-0.86,5.09
20.27699303627014,-3.45,-4.01,-0.35,5.3
20.279019117355347,-3.15,-4.68,-0.18,5.64
20.280731916427612,-2.99,-5.07,-0.24,5.89
20.30065608024597,-3.11,-4.82,-0.37,5.74
20.30305004119873,-3.42,-4.12,-0.33,5.36
20.312835931777954,-3.93,-3.38,-0.28,5.19
20.316411018371582,-4.44,-2.51,0.02,5.1
20.32897114753723,-4.44,-1.88,0.76,4.88
20.336750030517578,-3.76,-1.36,1.41,4.23
20.346829175949097,-2.64,-0.68,1.62,3.17
20.376671075820923,-1.35,0.39,1.12,1.79
20.37830090522766,0.19,1.8,-0.09,1.81
20.379464864730835,1.91,3.49,-1.54,4.26
20.386268854141235,3.58,5.08,-2.49,6.69
20.396913051605225,4.85,6.15,-2.84,8.33
20.406646013259888,5.6,6.85,-2.41,9.17
20.417185068130493,6.06,7.87,-1.51,10.04
20.427690982818604,6.49,9.1,-0.53,11.18
20.437772035598755,7.12,9.87,0.36,12.17
20.448129892349243,8.07,9.88,1.09,12.8
20.47769284248352,8.37,9.48,1.74,12.76
20.47930598258972,7.89,8.8,2.02,11.99
20.480427980422974,7.57,6.36,1.6,10.01
20.50162100791931,8.46,3.88,0.01,9.3
20.50406503677368,11.78,3.3,-2.04,12.4
20.512911081314087,15.78,2.9,-2.15,16.18
20.517582178115845,16.79,1.78,-2.25,17.03
20.52999997138977,15.47,0.79,-3.41,15.86
20.537977933883667,14.26,2.24,-4.72,15.18
20.54825186729431,12.75,3.71,-4.07,13.88
20.58001208305359,10.09,4.45,-5.04,12.12
20.582151174545288,0.55,4.92,-8.18,9.56
20.583295106887817,-15.52,10.38,-2.58,18.84
20.59962487220764,-19.15,15.17,3.95,24.74
20.601305961608887,2.01,5.91,3.03,6.93
20.61422300338745,13.68,0.58,0.85,13.71
20.618254899978638,11.98,5.05,1.63,13.1
20.6306631565094,13.57,3.88,5.6,15.18
20.638571977615356,14.86,-3.28,0.41,15.22
20.649041891098022,5.14,-2.15,1.78,5.84
20.68050789833069,-1.85,-2.67,5.45,6.34
20.682628870010376,-2.68,-0.91,3.74,4.69
20.684144020080566,-1.48,1.03,-1.39,2.27
20.70120596885681,1.17,2.19,-5.66,6.18
20.702934980392456,4.62,1.69,-5.65,7.49
20.714308977127075,6.24,0.01,-3.71,7.25
20.718955039978027,6.04,-0.91,-2.4,6.56
20.730168104171753,3.95,-0.8,-0.48,4.05
20.739177942276,0.89,-0.29,1.03,1.39
20.749641180038452,-1.3,0.19,1.9,2.31
20.78004503250122,-1.97,0.04,2.49,3.17
20.782254934310913,-1.31,-0.29,2.3,2.66
20.783969163894653,0.19,-0.31,0.83,0.9
20.80143713951111,1.55,-0.04,-0.58,1.65
20.803447008132935,1.77,0.18,-0.84,1.96
20.814013957977295,0.73,0.27,-0.54,0.94
20.81933617591858,-0.74,0.28,-0.09,0.79
20.829962968826294,-1.75,0.33,0.34,1.81
20.83999991416931,-1.95,0.26,0.48,2.02
20.85023283958435,-1.53,0.22,0.26,1.56
20.882747888565063,-0.78,0.31,-0.1,0.84
20.88521099090576,-0.39,0.38,-0.18,0.57
20.886890172958374,-0.47,0.42,-0.03,0.63
20.899250030517578,-0.83,0.5,0.19,0.98
20.900975942611694,-1.09,0.56,0.41,1.29
20.914055109024048,-1.15,0.49,0.71,1.43
20.919965982437134,-0.99,0.34,0.76,1.29
20.93052315711975,-0.52,0.46,0.62,0.93
20.9406840801239,-0.33,1.21,0.4,1.31
20.950886011123657,-0.83,1.83,0.11,2.01
20.98228406906128,-1.64,1.66,-0.54,2.39
20.98467993736267,-2.28,1.4,-1.19,2.92
20.98627495765686,-2.44,1.23,-1.03,2.92
20.99932312965393,-2.46,1.32,-0.7,2.87
21.00108313560486,-2.65,1.65,-0.14,3.12
21.014991998672485,-3.03,2.16,0.63,3.77
21.020732164382935,-3.52,2.6,1.24,4.54
21.030954122543335,-3.8,2.63,1.33,4.8
21.041385889053345,-3.61,2.51,1.11,4.53
21.051110982894897,-3.22,2.5,0.96,4.18
21.083606004714966,-3.22,2.62,1.11,4.29
21.08557391166687,-3.98,2.97,1.41,5.16
21.0886070728302,-5.07,3.58,1.44,6.37
21.101220846176147,-5.9,4.47,1.11,7.48
21.101953983306885,-6.73,5.79,0.81,8.91
21.115244150161743,-8.05,7.45,0.5,10.97
21.121273040771484,-10.6,8.56,0.33,13.62
21.13139510154724,-14.22,9.01,0.41,16.83
21.142004013061523,-16.96,9.15,0.15,19.27
21.15195393562317,-17.26,9.26,0.28,19.58
21.18263602256775,-14.64,8.81,1.18,17.12
21.18470311164856,-9.63,8.91,1.76,13.23
21.186089038848877,-2.24,10.75,2.84,11.34
21.199555158615112,3.87,11.96,3.69,13.1
21.201656103134155,2.91,9.66,5.47,11.47
21.2132670879364,-2.8,6.5,5.21,8.78
21.221885919570923,-7.79,3.78,4.75,9.87
21.231959104537964,-10.41,1.59,4.86,11.59
21.242336988449097,-10.26,-0.18,5.9,11.83
21.25254988670349,-6.24,0.23,7.83,10.01
21.28170895576477,1.48,1.5,4.02,4.53
21.28370213508606,9.83,-0.01,-0.38,9.83
21.284783124923706,8.71,-2.3,0.05,9.0
21.300209999084473,-1.67,-1.75,2.07,3.18
21.302276849746704,-7.19,-2.82,3.65,8.54
21.314788103103638,-10.05,-5.16,3.19,11.73
21.322409868240356,-11.19,-6.69,0.83,13.06
21.332797050476074,-9.76,-5.78,-0.84,11.37
21.34282398223877,-6.75,-4.02,-0.79,7.89
21.35364603996277,-4.53,-3.17,-0.03,5.52
21.38460898399353,-3.49,-3.35,0.42,4.85
21.387127161026,-3.08,-4.04,0.74,5.13
21.388777017593384,-3.12,-4.64,0.67,5.63
21.39872908592224,-3.4,-4.98,0.35,6.04
21.40282702445984,-3.53,-4.86,0.11,6.0
21.414541006088257,-3.45,-4.11,0.08,5.36
21.423189878463745,-3.41,-3.24,0.16,4.7
21.433615922927856,-3.62,-2.27,0.05,4.27
21.44399094581604,-3.64,-1.36,0.34,3.9
21.453747034072876,-3.0,-0.69,1.01,3.23
21.48478102684021,-1.94,0.07,1.27,2.31
21.486868143081665,-0.74,1.16,0.69,1.53
21.48847508430481,0.58,2.65,-0.5,2.75
21.49922800064087,2.0,4.41,-1.86,5.18
21.503128051757812,3.28,6.13,-2.63,7.43
21.51528286933899,4.23,7.39,-2.95,9.01
21.5239520072937,4.97,8.23,-2.93,10.05
21.533957958221436,6.3,9.08,-1.82,11.2
21.544245958328247,9.0,9.98,-0.57,13.45
21.555358171463013,11.56,10.14,-0.26,15.37
21.5857150554657,11.09,8.53,-0.24,13.99
21.58784317970276,8.47,6.55,1.8,10.85
21.58944797515869,7.2,5.8,2.32,9.53
21.59881615638733,9.22,4.86,0.51,10.43
21.603727102279663,12.58,3.2,-0.58,12.99
21.614824056625366,14.27,2.42,-0.01,14.47
21.624253034591675,13.65,2.57,-0.87,13.91
21.634603023529053,14.7,2.7,-3.8,15.42
21.644707918167114,16.65,3.83,-4.92,17.77
21.655220985412598,18.19,6.67,-7.45,20.75
21.685736894607544,10.66,8.09,-13.23,18.81
21.688071966171265,-9.27,15.98,-5.01,19.14
21.68979811668396,-16.66,17.76,1.3,24.38
21.699569940567017,0.9,3.47,-0.48,3.61
21.70435905456543,9.23,-2.73,1.33,9.71
21.715090036392212,7.07,-1.16,1.07,7.24
21.724837064743042,8.66,-0.14,5.58,10.3
21.735163927078247,12.07,-3.54,5.69,13.8
21.745264053344727,8.8,-0.62,1.01,8.87
21.755707025527954,2.75,0.42,-0.31,2.79
21.788406133651733,-1.16,0.69,-2.46,2.8
21.790820837020874,-1.02,1.36,-3.59,3.97
21.792569875717163,2.47,0.59,-2.59,3.62
21.798722982406616,6.06,0.06,-2.61,6.59
21.8049418926239,6.68,-0.2,-2.96,7.3
21.815618991851807,4.14,-0.3,-1.74,4.5
21.82551407814026,1.06,0.09,0.32,1.11
21.83581805229187,-0.57,0.27,1.96,2.05
21.846073865890503,-0.91,0.13,2.58,2.73
21.855779886245728,-0.32,-0.04,1.58,1.61
21.88637614250183,0.78,-0.1,0.4,0.88
21.888490915298462,1.61,0.05,-0.41,1.66
21.890092134475708,1.73,0.21,-0.58,1.83
21.898627996444702,1.14,0.37,-0.17,1.21
21.90550208091736,0.08,0.4,0.43,0.59
21.915973901748657,-0.95,0.47,0.77,1.31
21.92612099647522,-1.51,0.46,0.91,1.82
21.936297178268433,-1.47,0.34,0.73,1.67
21.946550130844116,-1.06,0.23,0.3,1.12
21.9566490650177,-0.75,0.14,-0.17,0.78
21.98847794532776,-0.48,0.26,-0.47,0.72
21.990522146224976,-0.83,0.28,-0.47,0.99
21.992014169692993,-1.45,0.34,-0.02,1.48
21.99875807762146,-1.74,0.19,0.45,1.8
22.00644302368164,-1.39,-0.12,0.68,1.55
22.016573190689087,-0.95,-0.16,0.79,1.24
22.026600122451782,-0.69,0.74,0.79,1.28
22.037171125411987,-0.85,1.51,0.52,1.8
22.047109842300415,-1.37,1.37,0.06,1.93
22.0570969581604,-1.83,1.26,-0.17,2.22
22.09244203567505,-2.22,1.22,-0.41,2.56
22.094640016555786,-2.4,1.16,-0.63,2.73
22.095911979675293,-2.27,1.31,-0.53,2.67
22.09952712059021,-2.25,1.49,-0.14,2.7
22.106503009796143,-2.6,1.83,0.33,3.19
22.117860078811646,-3.12,2.22,0.72,3.89
22.12689185142517,-3.61,2.58,0.67,4.48
22.137390851974487,-3.72,2.7,0.54,4.62
22.147706985473633,-3.59,2.77,0.35,4.54
22.157793045043945,-3.58,2.84,0.36,4.58
22.19011902809143,-3.94,3.02,0.63,5.0
22.192039012908936,-4.66,3.38,1.23,5.88
22.193226099014282,-5.67,3.89,1.51,7.03
22.198612928390503,-6.84,4.59,1.45,8.36
22.207836866378784,-8.04,5.76,1.43,9.99
22.218095064163208,-9.99,7.57,1.5,12.62
22.22846817970276,-12.87,8.69,1.4,15.59
22.23849892616272,-14.53,8.48,1.38,16.88
22.247957944869995,-14.53,8.68,1.01,16.95
22.258713006973267,-12.93,8.91,1.11,15.74
22.290313959121704,-9.08,9.24,2.33,13.16
22.29243803024292,-3.38,10.99,2.54,11.77
22.29385805130005,0.81,11.79,2.26,12.03
22.298742055892944,-2.08,11.06,4.64,12.17
22.308214902877808,-6.83,7.33,4.88,11.14
22.31815791130066,-9.42,3.75,4.84,11.23
22.328960180282593,-9.79,1.87,4.0,10.73
22.33889603614807,-8.42,0.97,4.06,9.39
22.348775148391724,-4.62,0.8,5.95,7.57
22.359309911727905,2.57,0.85,2.29,3.54
22.391048192977905,11.0,-0.8,-1.1,11.08
22.393350839614868,8.41,-1.96,0.22,8.63
22.395158052444458,-1.45,-1.52,1.96,2.87
22.39875292778015,-6.73,-3.13,2.83,7.94
22.4145450592041,-10.36,-5.35,1.79,11.79
22.418652057647705,-12.04,-6.37,0.53,13.63
22.430917978286743,-10.09,-5.69,-0.22,11.58
22.4392249584198,-6.58,-4.15,-0.14,7.78
22.44937491416931,-4.26,-3.2,0.09,5.32
22.459521055221558,-3.18,-3.18,0.08,4.49
22.491883039474487,-2.73,-3.63,0.15,4.54
22.493940114974976,-2.71,-4.2,0.37,5.01
22.495645999908447,-3.01,-4.44,0.47,5.38
22.499386072158813,-3.49,-4.1,0.43,5.4
22.51517105102539,-4.08,-3.44,0.44,5.35
22.51976990699768,-4.39,-2.79,0.46,5.22
22.531105995178223,-4.12,-2.12,0.81,4.7
22.540076971054077,-3.26,-1.72,1.47,3.96
22.549970865249634,-2.24,-1.38,1.83,3.2
22.560667991638184,-1.51,-0.65,1.65,2.32
22.591503858566284,-0.73,0.49,1.05,1.36
22.5933358669281,0.5,1.88,0.14,1.95
22.594659090042114,2.01,3.34,-0.7,3.96
22.599483013153076,3.31,4.79,-1.07,5.91
22.614511013031006,4.23,5.97,-1.07,7.39
22.61997103691101,4.8,6.99,-0.65,8.5
22.63039517402649,5.08,8.22,-0.29,9.66
22.640998125076294,5.48,9.23,-0.01,10.73
22.650553941726685,6.58,10.0,0.15,11.97
22.66203999519348,8.37,10.22,0.29,13.21
22.690052032470703,9.39,9.75,0.7,13.55
22.692113161087036,9.49,7.8,0.86,12.31
22.69369101524353,9.81,4.9,-0.13,10.96
22.700188875198364,11.15,3.42,-2.82,11.99
22.710601091384888,13.25,2.83,-2.99,13.87
22.7210750579834,14.62,2.72,-1.7,14.96
22.731242895126343,14.79,2.3,-2.51,15.17
22.741039991378784,15.6,1.06,-3.64,16.05
22.75127601623535,17.81,1.13,-5.15,18.57
22.761706113815308,16.74,2.97,-5.69,17.92
22.792988061904907,11.16,5.65,-5.12,13.51
22.79517102241516,0.35,6.81,-8.02,10.52
22.796282052993774,-18.63,12.3,-5.8,23.06
22.800665140151978,-23.07,17.6,-2.86,29.15
22.811025857925415,2.02,4.58,1.42,5.2
22.821130990982056,12.85,-1.46,1.52,13.02
22.8319308757782,9.16,-0.49,-2.21,9.43
22.841824054718018,4.75,0.07,-0.17,4.75
22.851929903030396,5.48,1.53,10.0,11.5
22.86217999458313,12.59,-1.28,11.48,17.08
22.89502215385437,13.51,0.0,0.59,13.52
22.898450136184692,3.04,1.82,-0.48,3.57
22.900492906570435,-2.94,0.02,1.09,3.13
22.90279984474182,-3.24,0.56,-0.78,3.37
22.91169810295105,-0.38,0.46,-4.82,4.85
22.92180895805359,4.14,0.81,-5.9,7.25
22.932149171829224,6.75,0.47,-3.98,7.85
22.94250988960266,5.92,-0.27,-1.83,6.2
22.952479124069214,3.41,-0.56,0.51,3.49
22.963239908218384,0.71,-0.64,2.37,2.55
22.99263095855713,-1.42,-0.4,2.96,3.3
22.99416708946228,-2.21,-0.06,2.85,3.6
22.99528193473816,-1.29,0.04,1.49,1.97
23.00223708152771,0.31,0.13,-0.44,0.55
23.01589798927307,1.39,0.23,-1.29,1.91
23.02266812324524,1.32,0.16,-0.66,1.48
23.032646894454956,0.08,0.2,-0.08,0.22
23.043498992919922,-1.43,0.26,0.6,1.57
23.05303406715393,-2.5,0.06,1.12,2.74
23.063233137130737,-2.5,-0.04,0.73,2.6
23.09906506538391,-1.55,0.16,-0.03,1.55
23.100437879562378,-0.46,0.33,-0.47,0.73
23.101562023162842,-0.14,0.3,-0.4,0.51
23.117758989334106,-0.39,0.34,-0.08,0.52
23.119493007659912,-0.87,0.39,0.21,0.97
23.134464025497437,-1.16,0.42,0.47,1.32
23.136255979537964,-1.01,0.57,0.66,1.33
23.14799404144287,-0.64,0.71,0.68,1.17
23.15332818031311,-0.33,0.99,0.47,1.14
23.165053129196167,-0.51,1.42,0.03,1.5
23.190515995025635,-1.06,1.25,-0.69,1.77
23.19272017478943,-1.66,1.12,-0.92,2.2
23.193939924240112,-2.11,1.11,-0.81,2.51
23.203418016433716,-2.24,1.21,-0.72,2.64
23.213515996932983,-2.32,1.64,-0.05,2.84
23.224005937576294,-2.6,2.0,0.83,3.38
23.234035968780518,-3.14,2.28,1.3,4.09
23.244436979293823,-3.22,2.34,1.22,4.16
23.254549980163574,-2.78,2.43,0.67,3.75
23.26477885246277,-2.35,2.75,0.24,3.62
23.29553198814392,-2.76,2.98,0.36,4.07
23.297502040863037,-3.86,3.15,0.68,5.02
23.298840045928955,-4.88,3.42,0.94,6.03
23.31858515739441,-5.5,3.72,0.8,6.68
23.32089400291443,-5.89,4.35,0.35,7.33
23.332698106765747,-6.67,5.63,0.27,8.73
23.335185050964355,-8.62,7.0,0.42,11.11
23.34794592857361,-11.78,7.78,0.69,14.13
23.354931116104126,-15.55,8.55,0.88,17.76
23.364850997924805,-17.04,9.22,1.13,19.4
23.394191026687622,-15.21,9.09,1.69,17.79
23.396404027938843,-11.74,8.68,2.62,14.83
23.3975989818573,-6.36,9.98,3.42,12.31
23.404571056365967,1.03,13.91,2.1,14.1
23.41511607170105,4.35,13.16,2.34,14.05
23.425117015838623,0.86,8.93,4.9,10.22
23.43507218360901,-4.62,5.0,6.34,9.3
23.445728063583374,-8.53,2.55,6.11,10.79
23.455640077590942,-9.52,0.53,5.18,10.85
23.465709924697876,-7.95,0.15,5.81,9.84
23.49783492088318,-3.07,1.02,5.94,6.76
23.500038862228394,5.08,0.52,0.02,5.1
23.501688957214355,10.15,-1.47,-1.71,10.39
23.518462896347046,2.17,-1.15,1.44,2.84
23.52018713951111,-5.54,-1.77,3.21,6.64
23.532345056533813,-9.09,-4.68,4.08,11.0
23.53558897972107,-11.63,-7.08,2.9,13.92
23.548096895217896,-11.92,-7.3,0.82,14.0
23.55577301979065,-8.93,-5.98,-0.35,10.75
23.566087007522583,-5.92,-4.5,-0.42,7.44
23.59305691719055,-4.26,-3.75,-0.32,5.68
23.5954430103302,-3.32,-3.79,-0.09,5.03
23.596914052963257,-2.78,-4.45,0.31,5.25
23.60617709159851,-2.8,-5.29,0.53,6.0
23.616009950637817,-3.08,-5.66,0.43,6.45
23.626347064971924,-3.35,-5.33,0.32,6.3
23.636291027069092,-3.71,-4.4,0.26,5.76
23.646852016448975,-3.89,-3.21,0.05,5.04
23.65687918663025,-3.75,-2.09,0.03,4.29
23.667067050933838,-3.21,-1.28,0.38,3.47
23.697806119918823,-2.28,-0.76,0.84,2.54
23.69972586631775,-1.25,-0.09,0.92,1.55
23.701416015625,-0.15,1.13,0.44,1.22
23.706188917160034,1.17,2.69,-0.45,2.96
23.716438055038452,2.53,4.15,-0.93,4.94
23.726876974105835,3.59,5.5,-1.25,6.68
23.737462997436523,4.37,6.42,-1.11,7.84
23.747457027435303,4.66,7.14,-0.29,8.53
23.757884979248047,4.48,8.2,0.63,9.36
23.767503023147583,4.32,9.66,1.3,10.66
23.797603845596313,4.71,10.71,1.87,11.84
23.79963707923889,5.6,10.46,2.78,12.18
23.80142617225647,6.82,9.12,3.6,11.94
23.817940950393677,8.19,7.04,3.4,11.32
23.81964612007141,9.94,4.97,0.89,11.14
23.832679986953735,12.53,3.69,-2.3,13.26
23.837484121322632,14.23,3.22,-2.47,14.79
23.8486909866333,14.06,3.19,-2.41,14.61
23.85812211036682,13.26,2.52,-3.89,14.04
23.867923974990845,12.7,2.49,-4.05,13.56
23.89919686317444,13.5,1.86,-4.52,14.35
23.901275873184204,15.27,2.8,-6.38,16.78
23.902971982955933,12.45,5.02,-8.96,16.13
23.919933080673218,0.99,6.46,-11.79,13.48
23.921881914138794,-15.46,12.75,-3.84,20.4
23.932231187820435,-14.77,12.91,0.34,19.61
23.93806290626526,5.21,3.27,-0.86,6.21
23.948899030685425,11.5,-0.02,0.92,11.53
23.958697080612183,8.73,2.48,3.21,9.62
23.968981981277466,10.62,-0.62,5.91,12.16
24.00024914741516,10.91,-2.59,0.95,11.25
24.002382040023804,4.69,-0.09,1.51,4.92
24.003594160079956,-0.44,-0.83,3.5,3.62
24.020017862319946,-2.4,0.67,1.6,2.96
24.021723985671997,-1.7,0.64,-2.25,2.89
24.032385110855103,2.78,0.51,-4.89,5.64
24.03885817527771,7.4,-0.02,-3.62,8.23
24.048972845077515,8.02,-0.23,-2.78,8.49
24.05962109565735,5.46,-0.15,-1.92,5.78
24.06951594352722,2.19,-0.17,-0.23,2.2
24.10213804244995,-0.07,0.12,1.23,1.23
24.104482889175415,-0.85,0.19,2.14,2.31
24.105834007263184,-0.73,-0.05,2.17,2.29
24.11724591255188,-0.05,-0.2,1.4,1.41
24.11901593208313,0.85,-0.13,0.4,0.94
24.132750034332275,1.27,0.11,-0.39,1.33
24.13913106918335,0.95,0.3,-0.37,1.06
24.1507089138031,-0.02,0.42,-0.16,0.44
24.159276962280273,-1.11,0.48,0.28,1.24
24.170093059539795,-2.17,0.34,0.69,2.3
24.198012113571167,-2.74,0.17,0.67,2.82
24.199597120285034,-2.32,0.17,0.23,2.33
24.20065999031067,-1.23,0.24,-0.15,1.26
24.220582008361816,-0.37,0.18,-0.07,0.41
24.22297215461731,-0.45,0.15,0.22,0.52
24.231250047683716,-1.2,0.23,0.51,1.32
24.239533185958862,-1.79,0.36,0.51,1.89
24.250180959701538,-1.32,0.34,0.76,1.56
24.26021409034729,-0.57,0.42,0.63,0.94
24.270609140396118,-0.3,1.24,0.06,1.27
24.301701068878174,-0.67,1.96,-0.09,2.07
24.303896188735962,-1.33,1.67,-0.95,2.33
24.3055899143219,-1.67,1.31,-1.41,2.54
24.318788051605225,-1.84,1.29,-1.54,2.72
24.320573091506958,-1.99,1.63,-1.17,2.82
24.332430124282837,-2.35,1.88,-0.27,3.02
24.340387105941772,-3.01,2.08,0.72,3.72
24.35080599784851,-3.69,2.51,1.46,4.69
24.361068964004517,-3.96,2.64,1.62,5.02
24.371209859848022,-3.47,2.66,1.22,4.53
24.402319192886353,-2.79,2.83,1.16,4.13
24.404441118240356,-3.26,2.99,1.19,4.58
24.405986070632935,-4.39,3.16,1.35,5.57
24.41752600669861,-5.35,3.55,1.26,6.54
24.42051601409912,-5.8,4.16,0.88,7.19
24.43438196182251,-6.21,5.13,0.49,8.06
24.441123008728027,-7.53,6.24,0.13,9.78
24.451356172561646,-9.96,6.97,0.04,12.15
24.461538076400757,-13.06,7.5,-0.15,15.06
24.47162103652954,-14.81,8.25,-0.13,16.95
24.503435850143433,-13.89,8.09,0.18,16.07
24.50558114051819,-11.94,7.23,1.01,13.99
24.50716519355774,-9.12,7.85,1.71,12.15
24.51677107810974,-3.8,9.42,2.5,10.46
24.521401166915894,2.2,11.08,1.95,11.46
24.532501935958862,2.05,10.77,5.04,12.06
24.541624069213867,-2.8,7.06,6.74,10.15
24.55198311805725,-6.82,3.88,6.17,9.98
24.562240839004517,-8.89,1.6,5.47,10.55
24.57229208946228,-9.07,-0.09,5.02,10.36
24.602393865585327,-6.54,-0.08,6.38,9.13
24.604699850082397,-0.5,1.69,5.55,5.82
24.606462955474854,8.44,0.69,-1.04,8.53
24.61676812171936,10.19,-0.99,-0.2,10.23
24.621906042099,-0.73,-0.39,3.0,3.11
24.63304591178894,-7.51,-2.16,3.9,8.73
24.642359972000122,-11.46,-4.89,3.03,12.82
24.6523859500885,-13.36,-5.87,0.79,14.61
24.66295313835144,-11.01,-5.11,-1.18,12.19
24.672818899154663,-6.8,-3.67,-1.3,7.83
24.703166961669922,-4.49,-2.63,-0.96,5.29
24.705442190170288,-3.84,-2.34,-0.66,4.54
24.707118034362793,-3.49,-2.9,-0.05,4.53
24.718674898147583,-2.95,-3.95,0.29,4.93
24.722373962402344,-2.57,-4.67,0.23,5.33
24.73318314552307,-2.52,-4.66,-0.09,5.29
24.74330997467041,-3.06,-3.93,-0.38,4.99
24.753238916397095,-3.8,-3.06,-0.45,4.89
24.76327395439148,-4.32,-2.31,-0.25,4.9
24.77377700805664,-4.28,-1.72,0.32,4.62
24.80612802505493,-3.63,-1.3,0.86,3.95
24.808264017105103,-2.78,-0.71,1.15,3.09
24.809859037399292,-1.78,0.18,1.09,2.09
24.816970109939575,-0.45,1.37,0.54,1.53
24.822946071624756,1.06,2.91,-0.52,3.14
24.8332941532135,2.56,4.55,-1.41,5.4
24.84377694129944,3.89,5.95,-1.93,7.36
24.85387897491455,4.74,6.73,-1.81,8.42
24.86406683921814,5.12,7.68,-0.97,9.28
24.87416386604309,5.44,9.06,-0.38,10.57
24.90527105331421,6.25,10.51,0.3,12.23
24.90736413002014,7.55,11.93,1.37,14.18
24.908647060394287,8.36,11.76,3.08,14.75
24.91678500175476,8.89,8.09,3.54,12.53
24.92351794242859,9.45,5.3,1.11,10.89
24.934109926223755,11.85,4.74,-3.47,13.22
24.94416117668152,14.49,4.71,-2.8,15.49
24.95436692237854,15.48,4.69,-1.61,16.25
24.96462607383728,15.31,3.36,-2.29,15.84
24.974747896194458,14.71,1.75,-2.68,15.05
25.005966901779175,16.19,1.27,-3.93,16.7
25.008044958114624,16.68,3.22,-8.28,18.89
25.009570837020874,8.5,6.63,-12.05,16.16
25.016597986221313,-7.22,10.88,-5.89,14.32
25.024399042129517,-16.68,15.25,0.29,22.6
25.034613847732544,-3.44,8.45,-1.02,9.18
25.044727087020874,9.92,3.63,1.27,10.63
25.05502200126648,13.31,3.44,3.83,14.27
25.065521001815796,15.11,-1.08,-1.8,15.25
25.07523202896118,8.47,-2.25,-2.54,9.12
25.108280897140503,2.37,-3.79,4.53,6.36
25.109845876693726,1.02,-3.25,6.5,7.33
25.11109185218811,-0.16,-0.86,2.06,2.23
25.117451906204224,-0.76,1.91,-3.84,4.35
25.124749898910522,1.24,3.28,-5.16,6.23
25.134883165359497,4.25,1.7,-3.85,5.98
25.145562887191772,6.01,-0.34,-3.01,6.73
25.155522108078003,5.13,-1.09,-1.84,5.55
25.166892051696777,2.61,-0.68,-0.43,2.73
25.175685167312622,0.26,0.11,1.45,1.47
25.203909158706665,-1.0,0.37,2.84,3.03
25.205389976501465,-1.27,0.03,3.24,3.48
25.20651888847351,-0.7,-0.3,2.12,2.25
25.220112085342407,0.37,-0.16,0.64,0.75
25.22561287879944,1.34,0.1,-0.39,1.39
25.235885858535767,1.5,0.32,-0.81,1.73
25.2464120388031,0.62,0.47,-0.42,0.88
25.25629210472107,-0.64,0.48,0.33,0.86
25.26636004447937,-1.66,0.37,0.76,1.86
25.277031183242798,-1.94,0.16,0.86,2.12
25.310345888137817,-1.49,-0.02,0.65,1.62
25.3125479221344,-0.85,-0.09,0.31,0.9
25.313976049423218,-0.88,0.25,0.11,0.92
25.316643953323364,-0.36,0.34,-0.01,0.49
25.332709074020386,-0.25,-0.04,0.26,0.36
25.336349964141846,-1.24,-0.01,0.36,1.29
25.348700046539307,-1.18,0.14,0.53,1.3
25.35668396949768,-0.51,0.42,0.43,0.78
25.366849184036255,-0.22,0.64,0.3,0.74
25.377082109451294,-0.53,0.56,0.05,0.77
25.409138917922974,-0.9,0.64,0.03,1.1
25.411152124404907,-1.25,0.86,0.13,1.52
25.412845849990845,-1.78,1.09,0.18,2.09
25.416877031326294,-2.29,1.18,-0.09,2.57
25.43302607536316,-2.56,1.35,-0.31,2.91
25.436672925949097,-2.55,1.54,-0.27,2.99
25.44886088371277,-2.59,1.67,-0.14,3.08
25.45755100250244,-2.81,1.92,-0.01,3.4
25.467440843582153,-3.07,2.07,0.09,3.7
25.47763991355896,-3.14,2.08,-0.08,3.76
25.508386850357056,-2.96,2.29,-0.12,3.74
25.510443925857544,-2.51,2.48,0.12,3.53
25.512101888656616,-2.88,2.71,0.41,3.97
25.51710796356201,-3.76,2.93,1.22,4.92
25.52741003036499,-4.79,3.16,1.64,5.96
25.537378072738647,-5.64,3.78,1.45,6.94
25.548206090927124,-5.9,4.85,1.17,7.72
25.557696104049683,-6.58,6.2,0.8,9.07
25.567926168441772,-8.18,7.24,0.97,10.96
25.57809615135193,-10.97,8.1,1.17,13.68
25.60920786857605,-13.63,8.82,1.28,16.28
25.61147713661194,-14.45,9.09,1.55,17.14
25.613298177719116,-13.31,9.27,1.15,16.26
25.617541074752808,-9.91,9.53,1.14,13.79
25.632970094680786,-5.38,10.09,1.73,11.56
25.637829065322876,-1.12,11.76,2.56,12.08
25.649190187454224,-2.03,11.09,5.36,12.48
25.65858006477356,-6.46,7.87,5.47,11.55
25.66859197616577,-9.41,4.73,4.98,11.64
25.678945064544678,-10.41,2.26,4.89,11.72
25.711138010025024,-9.98,0.73,4.56,10.99
25.71275305747986,-7.16,-0.34,5.38,8.96
25.71389412879944,-0.88,1.23,4.93,5.15
25.718106031417847,8.19,0.42,-0.66,8.22
25.72861099243164,10.48,-1.92,-1.23,10.72
25.739104986190796,0.47,-0.96,2.38,2.6
25.748972177505493,-6.39,-2.05,4.2,7.91
25.759544134140015,-9.93,-5.05,4.49,12.01
25.769268035888672,-11.52,-7.13,3.28,13.93
25.780075073242188,-10.09,-6.75,1.19,12.19
25.811524152755737,-6.9,-4.68,0.11,8.33
25.813655138015747,-4.56,-3.28,-0.02,5.61
25.814767122268677,-3.9,-2.92,0.22,4.87
25.818639039993286,-3.89,-3.0,0.63,4.95
25.82921600341797,-3.29,-3.43,0.8,4.81
25.8390371799469,-2.31,-3.76,0.68,4.46
25.84966206550598,-1.96,-3.56,0.36,4.07
25.859893083572388,-2.33,-2.92,-0.01,3.73
25.869890928268433,-2.46,-2.17,-0.18,3.28
25.8805730342865,-2.19,-1.65,-0.05,2.74
25.911492109298706,-1.62,-1.44,0.36,2.19
25.91378402709961,-0.97,-1.25,0.83,1.78
25.91556406021118,-0.39,-0.45,0.94,1.11
25.919188022613525,0.52,0.86,0.49,1.11
25.929826021194458,2.03,2.09,-0.09,2.91
25.9398090839386,3.37,3.08,0.01,4.56
25.950216054916382,3.98,4.02,0.42,5.67
25.960439920425415,3.85,5.01,1.5,6.49
25.970775842666626,3.2,6.41,2.55,7.6
25.980438947677612,3.03,8.38,3.0,9.4
26.011150121688843,3.95,10.17,3.05,11.32
26.013272047042847,6.08,11.18,2.77,13.02
26.01483416557312,9.16,11.08,2.24,14.54
26.020211935043335,11.98,9.42,1.9,15.35
26.03028702735901,12.55,6.69,1.08,14.26
26.04050087928772,11.7,4.12,-1.26,12.46
26.051043033599854,11.11,2.39,-2.36,11.6
26.061393976211548,10.81,2.26,-2.21,11.26
26.0715491771698,11.37,2.57,-3.42,12.14
26.082349061965942,12.15,2.32,-5.33,13.46
26.11047911643982,13.19,1.2,-5.62,14.38
26.11220097541809,15.41,0.42,-6.56,16.75
26.113353967666626,15.63,1.77,-7.19,17.29
26.121069192886353,10.21,3.21,-5.35,11.96
26.134534120559692,4.54,5.5,-3.56,7.97
26.141185998916626,-6.04,2.66,-3.02,7.25
26.15125584602356,-19.7,8.12,-0.89,21.32
26.161938905715942,-11.89,15.49,-4.47,20.03
26.17162585258484,7.66,6.09,-0.06,9.78
26.18410301208496,10.17,4.13,1.44,11.07
26.213422060012817,10.75,9.32,4.02,14.78
26.215291023254395,16.37,0.54,0.4,16.38
26.216928005218506,10.98,-2.21,-3.74,11.8
26.221051931381226,2.09,-3.86,3.78,5.79
26.231338024139404,0.63,-3.96,6.75,7.85
26.24163794517517,0.4,-0.93,4.42,4.53
26.2522029876709,0.23,1.15,-1.99,2.3
26.262437105178833,2.13,2.72,-5.43,6.43
26.272379159927368,4.17,1.7,-4.23,6.17
26.282310962677002,4.78,-0.08,-2.95,5.61
26.31388807296753,4.09,-0.74,-1.82,4.53
26.315791845321655,2.33,-0.51,-0.08,2.38
26.316936016082764,0.36,0.03,0.95,1.01
26.336863040924072,-0.91,0.19,1.72,1.95
26.339179039001465,-1.23,-0.11,2.11,2.44
26.350481033325195,-0.7,-0.39,1.82,1.98
26.353008031845093,0.32,-0.29,0.51,0.66
26.366242170333862,1.14,0.01,-0.62,1.29
26.373059034347534,1.02,0.19,-0.57,1.18
26.382883071899414,-0.21,0.2,-0.01,0.29
26.412981033325195,-1.73,0.1,0.41,1.78
26.414940118789673,-2.57,0.07,0.64,2.64
26.41602110862732,-2.37,0.02,0.47,2.41
26.422314882278442,-1.61,0.07,0.32,1.64
26.433417081832886,-0.88,0.15,0.41,0.98
26.443166971206665,-0.82,0.13,0.36,0.9
26.4530131816864,-1.02,0.13,0.54,1.16
26.46379590034485,-1.05,0.1,0.57,1.19
26.473674058914185,-1.02,0.24,0.37,1.11
26.483829975128174,-0.81,0.29,0.3,0.91
26.516319036483765,-0.47,0.55,0.53,0.89
26.518492937088013,-0.2,0.83,0.55,1.01
26.520137071609497,-0.5,1.08,0.54,1.3
26.536123037338257,-1.12,1.27,0.42,1.74
26.537785053253174,-1.47,1.0,0.22,1.79
26.55008816719055,-1.52,1.05,-0.62,1.94
26.55366587638855,-1.66,1.53,-1.02,2.47
26.566470861434937,-1.97,1.75,-0.8,2.75
26.5742609500885,-2.42,2.11,-0.6,3.26
26.584195852279663,-2.81,2.66,-0.07,3.86
26.613776922225952,-3.07,2.78,0.35,4.15
26.616069078445435,-2.79,2.83,0.65,4.02
26.617799043655396,-2.57,3.07,1.02,4.13
26.63622212409973,-2.89,3.26,1.39,4.57
26.638051986694336,-3.62,3.4,1.7,5.24
26.650933027267456,-4.45,3.79,1.82,6.12
26.654268980026245,-5.24,4.31,1.51,6.95
26.66647696495056,-5.73,4.86,0.73,7.54
26.675019025802612,-6.18,5.41,0.05,8.21
26.684648990631104,-7.16,6.16,-0.08,9.44
26.71460199356079,-9.53,6.8,0.15,11.7
26.716814041137695,-12.92,7.35,0.21,14.86
26.7185480594635,-15.24,8.0,0.39,17.21
26.724290132522583,-15.8,8.62,0.32,18.0
26.734807014465332,-14.34,8.69,0.68,16.78
26.74468684196472,-11.31,8.56,1.99,14.32
26.75525212287903,-6.15,10.56,3.56,12.72
26.765233039855957,-0.34,13.48,3.21,13.86
26.775599002838135,2.05,11.02,3.84,11.84
26.785500049591064,-0.04,6.71,4.7,8.19
26.816694021224976,-3.69,4.04,4.76,7.25
26.818730115890503,-6.37,2.71,4.49,8.25
26.820427179336548,-6.35,1.17,4.78,8.03
26.83796501159668,-3.71,0.63,6.71,7.69
26.839926958084106,2.61,0.34,2.51,3.63
26.850303888320923,6.09,-1.63,0.73,6.34
26.855452060699463,-1.0,-1.86,1.54,2.61
26.86697793006897,-7.97,-2.37,1.99,8.54
26.875787019729614,-12.12,-3.53,1.14,12.67
26.886280059814453,-12.61,-4.47,0.28,13.38
26.91764807701111,-8.61,-4.86,-0.4,9.89
26.919811964035034,-4.76,-4.42,-0.8,6.54
26.92093014717102,-3.57,-3.88,-1.01,5.36
26.937515020370483,-3.87,-3.81,-0.66,5.47
26.939263105392456,-3.93,-4.34,-0.02,5.85
26.950708150863647,-3.61,-4.99,0.15,6.16
26.956192016601562,-3.6,-5.2,-0.08,6.32
26.966789960861206,-3.9,-4.92,-0.44,6.29
26.976387977600098,-4.29,-4.53,-0.55,6.26
26.987269163131714,-4.72,-4.08,-0.29,6.24
27.018244981765747,-4.79,-3.66,0.1,6.02
27.02035689353943,-4.41,-3.13,0.25,5.41
27.022053003311157,-3.82,-2.42,0.44,4.54
27.03651213645935,-3.24,-1.69,0.76,3.73
27.037641048431396,-2.71,-0.56,0.91,2.91
27.050704956054688,-1.81,0.95,0.72,2.16
27.056423902511597,-0.7,2.74,0.17,2.83
27.066860914230347,0.11,4.86,-0.31,4.87
27.077062845230103,0.66,7.25,0.22,7.28
27.087846040725708,1.49,9.63,0.49,9.75
27.11418104171753,2.73,11.32,0.25,11.64
27.116230010986328,3.75,11.88,0.51,12.46
27.11745285987854,4.5,11.59,1.03,12.47
27.13799500465393,5.55,11.17,1.03,12.51
27.13979196548462,7.65,11.12,0.12,13.49
27.150907039642334,11.17,10.3,-2.21,15.35
27.157278060913086,15.4,6.69,-5.19,17.57
27.167404890060425,17.22,2.48,-5.15,18.14
27.177752017974854,15.86,1.17,-3.65,16.31
27.18773913383484,14.25,2.89,-4.82,15.31
27.218437910079956,15.37,2.95,-6.41,16.91
27.220743894577026,17.82,1.55,-5.35,18.67
27.222306966781616,17.74,0.99,-4.4,18.3
27.23642086982727,14.15,1.66,-4.19,14.85
27.2376229763031,7.61,3.15,-2.16,8.51
27.251080989837646,3.84,5.27,-1.48,6.68
27.25791907310486,-2.23,4.66,-2.96,5.95
27.26826000213623,-16.94,11.6,-0.22,20.53
27.27829599380493,-14.16,18.29,-0.58,23.13
27.288251161575317,7.26,5.03,-0.72,8.86
27.318668127059937,11.14,-2.05,-0.66,11.34
27.320878982543945,4.39,0.43,-2.59,5.11
27.322613954544067,4.13,4.53,5.5,8.23
27.33787512779236,12.86,1.48,11.03,17.0
27.33968710899353,18.24,0.08,-0.6,18.25
27.35136604309082,5.92,-0.9,0.61,6.01
27.358091115951538,-2.81,-1.97,0.86,3.53
27.368589162826538,-3.21,-0.34,-1.92,3.75
27.378816843032837,-0.25,1.06,-3.94,4.08
27.389074087142944,4.53,1.68,-3.74,6.1
27.417983055114746,6.76,1.11,-3.38,7.63
27.42007303237915,5.5,-0.31,-2.35,5.98
27.421365976333618,2.47,-0.82,-0.23,2.61
27.43814492225647,0.12,-0.19,1.65,1.66
27.43985390663147,-0.72,0.09,2.83,2.92
27.451483011245728,-0.5,-0.13,2.66,2.7
27.459314107894897,0.31,-0.31,1.01,1.1
27.469381093978882,1.37,-0.25,-0.3,1.42
27.4797260761261,1.85,0.0,-0.77,2.0
27.490036010742188,1.23,0.36,-0.45,1.35
27.52207899093628,-0.2,0.52,0.17,0.58
27.524224996566772,-1.72,0.49,0.67,1.9
27.525866985321045,-2.45,0.27,0.92,2.63
27.534586191177368,-2.11,0.06,0.69,2.22
27.539222955703735,-1.12,-0.05,0.2,1.13
27.551151990890503,-0.74,0.09,-0.13,0.75
27.56016206741333,-0.49,0.25,-0.07,0.55
27.57020115852356,-0.82,0.11,0.14,0.83
27.580579042434692,-1.46,0.14,0.3,1.49
27.590137004852295,-1.48,0.23,0.53,1.58
27.621250867843628,-0.92,0.7,0.47,1.24
27.62325692176819,-0.49,1.47,0.08,1.55
27.62490487098694,-0.88,1.8,-0.1,2.0
27.63624596595764,-1.49,1.47,-0.24,2.1
27.63971996307373,-1.66,1.42,-0.6,2.26
27.65029001235962,-1.66,1.42,-0.55,2.25
27.660778999328613,-1.96,1.04,-0.68,2.32
27.67067003250122,-2.0,0.9,-0.7,2.3
27.681342840194702,-1.83,1.03,-0.24,2.11
27.69100594520569,-1.88,1.21,0.44,2.27
27.72249484062195,-2.28,1.35,1.1,2.86
27.724627017974854,-2.8,1.78,1.42,3.6
27.725920915603638,-3.11,2.15,1.36,4.01
27.735305070877075,-3.25,2.5,0.77,4.17
27.74038290977478,-2.96,2.86,0.19,4.12
27.751600980758667,-2.96,2.58,-0.29,3.93
27.760939836502075,-3.51,2.26,-0.4,4.19
27.771188974380493,-4.21,2.51,-0.17,4.9
27.78130006790161,-5.18,3.23,0.02,6.1
27.79180884361267,-6.5,4.26,-0.03,7.77
27.823369026184082,-7.69,5.27,-0.51,9.33
27.82566499710083,-8.7,6.34,-0.86,10.79
27.827315092086792,-10.21,7.09,-0.54,12.44
27.834755182266235,-12.89,7.78,0.54,15.06
27.840970039367676,-15.72,8.71,1.78,18.05
27.851465940475464,-16.06,9.73,2.52,18.94
27.861520051956177,-11.69,10.22,2.62,15.74
27.87214684486389,-4.72,11.07,1.64,12.14
27.882126092910767,2.08,11.89,0.52,12.08
27.8923819065094,0.61,12.85,5.38,13.94
27.921898126602173,-6.65,9.5,6.89,13.48
27.924218893051147,-10.04,5.08,4.9,12.27
27.92600417137146,-9.92,1.84,4.51,11.05
27.93480396270752,-9.56,-0.06,4.33,10.49
27.941585063934326,-7.82,0.04,4.23,8.89
27.951850175857544,-2.76,3.46,3.11,5.4
27.96241307258606,5.77,2.69,-1.63,6.57
27.972273111343384,9.16,-0.67,-1.83,9.36
27.982625007629395,0.32,-0.38,1.36,1.44
27.992851972579956,-6.01,-1.56,3.29,7.02
28.023937940597534,-9.11,-4.72,3.97,11.0
28.026232957839966,-11.24,-6.99,2.86,13.54
28.02793002128601,-11.57,-6.49,1.03,13.3
28.035154104232788,-8.66,-4.94,-0.05,9.97
28.04232907295227,-5.88,-3.75,-0.12,6.97
28.05236792564392,-4.51,-3.05,0.04,5.44
28.062703847885132,-3.67,-3.14,0.21,4.83
28.07361912727356,-3.26,-3.59,0.12,4.85
28.084064960479736,-3.23,-4.06,-0.04,5.18
28.09275794029236,-3.25,-4.3,-0.04,5.39
28.12090301513672,-3.49,-3.8,-0.07,5.15
28.12242817878723,-3.54,-2.64,-0.4,4.43
28.123574018478394,-3.16,-1.43,-0.38,3.48
28.139113187789917,-2.5,-0.66,0.2,2.59
28.142956972122192,-1.72,-0.28,0.86,1.94
28.153434991836548,-0.97,0.14,1.15,1.51
28.16344714164734,-0.36,1.03,0.88,1.4
28.17408585548401,0.49,2.48,-0.01,2.52
28.183581113815308,1.87,4.15,-1.24,4.71
28.194231033325195,3.45,5.68,-1.99,6.93
28.226803064346313,4.63,6.39,-1.8,8.09
28.228380918502808,4.87,6.68,-1.12,8.34
28.229602098464966,4.71,7.2,-0.78,8.63
28.235113859176636,4.68,8.35,-0.49,9.58
28.243345022201538,5.75,10.11,-0.22,11.63
28.253931045532227,8.34,11.11,-0.23,13.89
28.2648708820343,10.82,11.1,0.96,15.53
28.274215936660767,12.56,8.91,1.88,15.51
28.28423285484314,13.6,5.17,0.72,14.56
28.294233083724976,14.69,2.5,-2.47,15.1
28.326090097427368,15.02,1.89,-3.17,15.46
28.328203916549683,14.38,3.91,-1.92,15.02
28.329946994781494,13.68,3.13,-2.35,14.22
28.335747003555298,13.84,0.08,-2.18,14.01
28.34420895576477,16.01,-0.26,-2.87,16.26
28.354522943496704,16.69,2.22,-3.49,17.19
28.365176916122437,12.64,3.98,-5.33,14.28
28.374816179275513,1.43,6.0,-7.77,9.92
28.38484215736389,-16.4,12.01,-5.67,21.1
28.395328998565674,-25.66,20.04,-1.23,32.58
28.42713189125061,-2.96,8.35,-0.97,8.91
28.42925190925598,13.23,-0.87,1.5,13.34
28.430569887161255,10.28,1.17,1.17,10.41
28.435221910476685,9.18,3.28,4.98,10.94
28.45091414451599,14.26,-4.29,7.31,16.58
28.454861879348755,12.66,-3.81,1.86,13.35
28.467352151870728,5.18,-2.08,3.27,6.46
28.475454092025757,0.36,0.15,2.05,2.08
28.48543095588684,-1.76,2.34,-1.66,3.36
28.495659112930298,-1.2,2.57,-5.38,6.08
28.52654194831848,3.62,1.27,-6.02,7.13
28.528571844100952,7.74,-0.37,-4.02,8.72
28.530412912368774,7.11,-0.75,-2.81,7.68
28.535287141799927,3.73,-0.59,-1.07,3.92
28.545396089553833,0.08,-0.16,1.44,1.45
28.55533194541931,-2.28,0.19,3.44,4.13
28.566051959991455,-2.76,-0.04,3.8,4.69
28.576374053955078,-1.28,-0.25,2.57,2.88
28.585975885391235,0.94,-0.06,0.32,0.99
28.596370935440063,2.29,0.21,-1.1,2.54
28.628959894180298,2.03,0.44,-1.06,2.33
28.631099939346313,0.44,0.74,-0.5,0.99
28.632812023162842,-1.26,0.85,0.3,1.54
28.636348962783813,-2.33,0.72,0.82,2.57
28.64605689048767,-2.44,0.53,0.71,2.59
28.656431913375854,-1.71,0.38,0.27,1.77
28.666409015655518,-0.75,0.38,-0.29,0.88
28.677024126052856,-0.12,0.42,-0.51,0.67
28.68660616874695,-0.25,0.72,-0.72,1.04
28.697309970855713,-0.9,0.75,-0.35,1.22
28.72887396812439,-1.28,0.71,-0.28,1.49
28.731173992156982,-1.24,0.64,0.01,1.39
28.732879877090454,-0.84,0.68,0.17,1.09
28.736451864242554,-0.61,1.05,0.36,1.26
28.74667501449585,-1.13,1.56,0.29,1.94
28.75653386116028,-1.91,1.36,0.13,2.34
28.766977071762085,-2.53,0.97,-0.16,2.71
28.777315855026245,-2.74,0.9,-0.32,2.9
28.78724217414856,-2.67,1.0,-0.36,2.87
28.79814314842224,-2.7,1.23,-0.19,2.97
28.82787799835205,-2.86,1.59,0.28,3.28
28.830039978027344,-3.13,2.01,0.82,3.8
28.831130981445312,-3.52,2.2,1.08,4.28
28.83675789833069,-3.65,2.24,0.99,4.39
28.851031064987183,-3.48,2.49,0.67,4.33
28.857336044311523,-3.54,2.82,0.62,4.56
28.867341995239258,-4.12,3.12,0.62,5.2
28.877882957458496,-5.12,3.67,0.9,6.36
28.888103008270264,-6.49,4.31,0.98,7.85
28.898542165756226,-7.96,4.81,0.42,9.3
28.93118691444397,-9.15,5.35,-0.55,10.61
28.934319019317627,-9.94,6.15,-1.28,11.75
28.93645405769348,-11.01,6.86,-1.28,13.03
28.938613176345825,-13.29,6.77,-0.61,14.92
28.94767117500305,-14.89,6.52,0.08,16.25
28.957973957061768,-13.19,7.36,1.12,15.14
28.968208074569702,-8.17,9.47,0.7,12.52
28.97815489768982,-1.52,12.2,-0.63,12.31
28.98906898498535,2.53,13.14,2.4,13.59
28.999091863632202,-1.93,11.92,7.6,14.26
29.028908014297485,-8.58,9.2,6.98,14.38
29.030515909194946,-10.43,5.59,5.19,12.92
29.031697988510132,-9.84,2.44,4.99,11.29
29.03856897354126,-9.31,0.75,5.27,10.72
29.051411867141724,-7.14,0.37,5.94,9.29
29.058587074279785,-1.47,3.88,4.45,6.08
29.069117069244385,7.8,2.54,-1.51,8.34
29.079581022262573,12.87,-0.98,-1.85,13.03
29.08971405029297,3.09,-0.23,2.41,3.92
29.100048065185547,-5.27,-1.13,4.7,7.15
29.129390001296997,-8.64,-4.66,5.86,11.43
29.131486177444458,-11.09,-7.82,4.13,14.18
29.13321304321289,-12.85,-7.98,1.19,15.17
29.13947296142578,-11.6,-5.28,-0.96,12.78
29.14892888069153,-8.1,-3.08,-0.93,8.71
29.159222841262817,-5.32,-2.14,-0.21,5.73
29.169811964035034,-3.6,-2.19,0.02,4.21
29.17966914176941,-2.71,-3.15,-0.2,4.16
29.189628839492798,-2.59,-4.28,-0.36,5.01
29.20045495033264,-2.77,-4.66,-0.08,5.42
29.231784105300903,-2.79,-4.05,0.13,4.91
29.23407292366028,-2.79,-2.91,-0.35,4.04
29.23527216911316,-2.93,-1.62,-0.97,3.48
29.239415884017944,-3.03,-0.51,-1.01,3.23
29.249835968017578,-2.75,0.17,-0.44,2.79
29.259407997131348,-1.91,0.4,0.35,1.98
29.269994974136353,-0.65,0.63,0.64,1.1
29.280333995819092,0.49,1.51,0.16,1.59
29.29040789604187,1.35,3.06,-0.88,3.45
29.300961017608643,2.43,4.77,-2.03,5.72
29.33124613761902,4.0,6.25,-2.8,7.93
29.3330500125885,5.46,6.28,-2.42,8.66
29.33461904525757,5.74,6.11,-0.83,8.42
29.339689016342163,5.65,7.12,-0.59,9.1
29.35038995742798,6.19,8.26,-0.59,10.33
29.360103845596313,7.09,8.73,0.48,11.25
29.37060284614563,7.43,8.68,2.26,11.64
29.380930185317993,6.72,8.41,3.63,11.36
29.39097809791565,5.72,7.26,3.48,9.87
29.401593923568726,6.96,5.44,0.87,8.87
29.433465003967285,11.47,3.54,-0.58,12.01
29.435920000076294,15.51,2.38,-0.21,15.69
29.43758797645569,16.94,2.32,-1.18,17.13
29.455260038375854,16.98,1.79,-3.29,17.38
29.4578058719635,18.11,0.95,-5.01,18.81
29.469254970550537,17.06,2.35,-5.09,17.95
29.4721360206604,13.03,4.09,-5.47,14.71
29.484389066696167,6.85,7.72,-10.39,14.64
29.49143695831299,-7.88,10.74,-10.81,17.15
29.501402139663696,-23.15,19.6,-1.63,30.37
29.529309034347534,-9.02,10.92,1.95,14.29
29.530845880508423,10.75,-2.46,2.41,11.28
29.532042026519775,10.42,1.42,2.4,10.78
29.54122495651245,11.37,6.67,8.09,15.46
29.551993131637573,19.45,-2.11,4.33,20.03
29.56176996231079,17.92,-3.05,-0.27,18.17
29.571746110916138,3.34,-3.06,4.77,6.57
29.582192182540894,-2.67,-1.81,4.49,5.52
29.592003107070923,-4.09,0.98,-1.69,4.53
29.602519035339355,-1.89,2.84,-7.05,7.83
29.635179042816162,4.93,2.45,-4.94,7.39
29.6371009349823,9.07,0.12,-2.98,9.54
29.638806104660034,7.96,-0.92,-3.73,8.83
29.65484309196472,4.67,-1.06,-2.07,5.21
29.6565420627594,1.0,-0.16,0.55,1.15
29.66840386390686,-1.19,0.34,2.84,3.09
29.672317028045654,-1.92,-0.01,4.13,4.55
29.684542894363403,-1.66,-0.33,3.21,3.62
29.6925790309906,-0.5,-0.39,1.28,1.42
29.703140020370483,0.94,-0.18,-0.06,0.95
29.73330807685852,1.55,0.13,-0.92,1.8
29.735410928726196,1.11,0.39,-0.98,1.53
29.736933946609497,0.0,0.57,-0.26,0.62
29.754603147506714,-1.55,0.47,0.81,1.81
29.756314039230347,-2.75,0.2,1.17,2.99
29.76925492286682,-2.71,0.1,1.07,2.91
29.772874116897583,-1.59,0.17,0.51,1.67
29.78479790687561,-0.58,0.27,-0.37,0.73
29.793264150619507,-0.37,0.36,-0.62,0.8
29.80332112312317,-0.93,0.24,-0.03,0.96
29.834424018859863,-1.36,0.13,0.25,1.38
29.836724042892456,-1.21,0.31,0.52,1.35
29.838386058807373,-0.89,1.32,0.49,1.66
29.854943990707397,-0.78,1.89,0.14,2.04
29.856550931930542,-1.02,1.68,-0.57,2.04
29.867990970611572,-1.62,1.46,-0.63,2.27
29.873748064041138,-2.08,1.28,-0.82,2.57
29.88470697402954,-2.4,1.13,-0.87,2.79
29.89380192756653,-2.65,1.3,-0.63,3.01
29.903939962387085,-2.79,1.58,-0.1,3.2
29.935770988464355,-2.98,2.02,0.58,3.64
29.938012838363647,-3.38,2.53,1.25,4.4
29.939735174179077,-3.48,2.69,1.73,4.72
29.954676866531372,-3.31,2.47,1.52,4.4
29.95640206336975,-3.02,2.26,0.99,3.89
29.96877694129944,-2.96,2.36,0.69,3.84
29.974359035491943,-3.28,2.77,0.89,4.38
29.985239028930664,-4.36,3.14,1.35,5.54
29.99458909034729,-5.56,3.75,1.67,6.91
30.00493884086609,-6.3,4.68,1.74,8.03
30.036406993865967,-7.18,6.1,1.73,9.57
30.038501024246216,-9.51,7.08,1.49,11.94
30.039797067642212,-13.1,7.57,1.18,15.17
30.054617166519165,-15.33,8.21,0.6,17.4
30.056354999542236,-15.92,8.77,0.25,18.17
30.06941294670105,-14.21,8.99,0.43,16.82
30.075141191482544,-10.11,9.56,1.19,13.96
30.088908910751343,-4.34,11.19,2.15,12.19
30.094832181930542,1.75,13.05,1.76,13.28
30.105117082595825,1.81,12.06,3.58,12.7
30.13281798362732,-3.31,8.33,5.48,10.5
30.135092973709106,-8.05,4.5,6.08,11.04
30.136624097824097,-10.72,2.16,5.14,12.08
30.15526795387268,-12.61,0.67,4.89,13.54
30.156126976013184,-11.91,-0.08,7.24,13.93
30.168768167495728,-5.64,1.48,7.54,9.53
30.175636053085327,3.71,2.67,1.49,4.8
30.1856050491333,11.1,0.58,-1.89,11.27
30.195783853530884,6.54,-1.2,0.51,6.66
30.205958127975464,-3.02,-0.92,2.85,4.25
30.23938488960266,-6.57,-3.2,4.89,8.79
30.242174863815308,-8.25,-5.51,4.89,11.06
30.244230031967163,-8.03,-7.15,1.44,10.84
30.257167100906372,-7.32,-5.74,-1.27,9.38
30.259433031082153,-6.99,-2.97,-0.98,7.65
30.269768953323364,-6.21,-1.85,0.63,6.51
30.276264905929565,-4.52,-2.18,1.53,5.24
30.28622317314148,-2.81,-3.09,1.65,4.49
30.2962429523468,-2.22,-3.88,1.29,4.65
30.30654788017273,-2.45,-4.15,1.0,4.92
30.339182138442993,-2.72,-3.9,1.14,4.88
30.341893911361694,-2.86,-3.11,1.09,4.36
