time,ax,ay,az,atotal
0.010677814483642578,0.07,0.08,-0.03,0.11
0.011516809463500977,0.01,0.1,0.03,0.1
0.020038843154907227,-0.02,0.07,0.15,0.16
0.030120849609375,0.02,0.04,0.24,0.24
0.04060792922973633,-0.07,0.07,0.22,0.24
0.05030179023742676,-0.11,0.11,0.15,0.21
0.0604708194732666,-0.05,0.13,0.11,0.17
0.07039284706115723,0.04,0.13,0.07,0.15
0.08054399490356445,0.03,0.11,0.04,0.12
0.09036874771118164,0.05,0.09,0.02,0.1
0.10061073303222656,0.01,0.14,-0.03,0.14
0.11063480377197266,-0.22,0.09,-0.05,0.24
0.1207888126373291,-0.05,0.11,-0.03,0.12
0.130875825881958,0.14,0.13,0.03,0.19
0.1407909393310547,-0.07,0.09,0.1,0.15
0.1507558822631836,-0.18,0.13,0.08,0.23
0.16100382804870605,-0.06,0.14,0.01,0.15
0.1712946891784668,0.02,0.12,-0.05,0.13
0.1810460090637207,0.04,0.1,-0.05,0.11
0.19088077545166016,-0.01,0.11,0.01,0.11
0.20138788223266602,-0.03,0.1,0.04,0.11
0.21109390258789062,-0.01,0.09,0.06,0.1
0.2216167449951172,-0.01,0.11,0.05,0.12
0.23141193389892578,0.02,0.09,0.09,0.12
0.24135971069335938,0.01,0.07,0.21,0.22
0.2516617774963379,-0.04,0.08,0.21,0.22
0.26172399520874023,-0.1,0.1,0.17,0.22
0.27192068099975586,-0.13,0.11,0.12,0.2
0.2819068431854248,-0.09,0.11,0.1,0.17
0.29200077056884766,-0.02,0.1,0.02,0.1
0.30181288719177246,0.0,0.12,-0.1,0.15
0.3114156723022461,-0.04,0.15,-0.15,0.21
0.3222637176513672,-0.03,0.16,-0.12,0.2
0.33185887336730957,-0.03,0.17,-0.08,0.19
0.34223175048828125,-0.04,0.11,0.01,0.11
0.351809024810791,-0.08,0.12,-0.03,0.14
0.3620798587799072,-0.12,0.21,-0.03,0.24
0.3724508285522461,-0.13,0.15,0.09,0.21
0.38204193115234375,-0.07,0.13,0.08,0.16
0.3924088478088379,-0.02,0.11,0.03,0.11
0.4022538661956787,0.02,0.05,0.15,0.15
0.41239070892333984,0.04,0.04,0.18,0.18
0.4222879409790039,0.06,0.07,0.07,0.11
0.43250489234924316,0.12,0.04,0.13,0.18
0.4428708553314209,0.14,0.01,0.21,0.25
0.4524688720703125,-0.01,0.12,0.11,0.16
0.46257781982421875,-0.09,0.15,0.01,0.17
0.4727597236633301,-0.02,0.13,0.01,0.13
0.48265695571899414,0.07,0.1,-0.07,0.14
0.493222713470459,0.11,0.08,-0.13,0.18
0.5027856826782227,0.08,0.08,-0.15,0.18
0.5129868984222412,0.02,0.1,-0.12,0.15
0.5231888294219971,-0.05,0.11,-0.09,0.15
0.5334408283233643,-0.09,0.17,-0.06,0.2
0.5432829856872559,-0.11,0.19,0.04,0.22
0.5532927513122559,-0.08,0.14,0.02,0.16
0.5632967948913574,-0.04,0.12,-0.04,0.13
0.5733199119567871,-0.02,0.11,-0.04,0.11
0.583704948425293,0.02,0.08,-0.01,0.08
0.5934298038482666,0.05,0.08,0.03,0.09
0.6035518646240234,0.02,0.05,0.11,0.12
0.6134068965911865,-0.06,0.07,0.11,0.14
0.6236279010772705,-0.08,0.13,0.07,0.16
0.6340489387512207,-0.05,0.15,0.07,0.17
0.6436357498168945,-0.04,0.14,0.08,0.16
0.6537647247314453,-0.09,0.1,0.12,0.18
0.663820743560791,-0.07,0.11,0.08,0.15
0.6739068031311035,-0.06,0.13,0.03,0.14
0.684039831161499,-0.04,0.13,-0.04,0.14
0.694462776184082,-0.02,0.14,-0.13,0.19
0.7044239044189453,-0.02,0.13,-0.15,0.19
0.7134737968444824,-0.03,0.14,-0.15,0.2
0.7243978977203369,-0.06,0.11,-0.07,0.14
0.7343540191650391,-0.08,0.13,-0.04,0.15
0.7449238300323486,-0.07,0.15,-0.03,0.16
0.7543249130249023,-0.08,0.15,0.01,0.17
0.7644968032836914,-0.08,0.15,0.03,0.17
0.7746429443359375,-0.07,0.15,0.01,0.16
0.784160852432251,-0.05,0.1,0.04,0.11
0.7941889762878418,-0.01,0.07,0.07,0.09
0.803959846496582,-0.01,0.07,0.08,0.1
0.8140149116516113,0.02,0.08,0.1,0.12
0.8250188827514648,0.05,0.08,0.12,0.15
0.834298849105835,0.01,0.1,0.11,0.14
0.8453450202941895,-0.02,0.09,0.11,0.14
0.8550167083740234,-0.04,0.09,0.07,0.12
0.865077018737793,-0.04,0.09,0.03,0.1
0.8752098083496094,-0.01,0.12,-0.03,0.12
0.8852877616882324,0.03,0.15,0.0,0.15
0.895535945892334,0.03,0.14,0.01,0.14
0.9053869247436523,0.01,0.13,-0.02,0.13
0.9153647422790527,-0.04,0.11,-0.02,0.11
0.9258108139038086,-0.05,0.1,0.01,0.11
0.9357578754425049,-0.01,0.12,-0.02,0.12
0.9459238052368164,0.01,0.15,-0.01,0.15
0.9546158313751221,0.0,0.13,0.03,0.13
0.9647817611694336,0.0,0.1,0.08,0.12
0.9750399589538574,0.0,0.09,0.01,0.09
0.9850718975067139,0.01,0.11,-0.01,0.11
0.9953579902648926,-0.01,0.09,0.03,0.09
1.0060148239135742,-0.05,0.11,0.02,0.12
1.0159637928009033,0.0,0.11,-0.01,0.11
1.0262808799743652,0.02,0.12,0.0,0.12
1.0354008674621582,0.04,0.13,-0.02,0.13
1.0455269813537598,0.04,0.12,-0.03,0.13
1.0552217960357666,0.01,0.08,0.0,0.08
1.0653877258300781,0.01,0.06,0.03,0.06
1.0754656791687012,-0.01,0.1,0.0,0.1
1.0857288837432861,0.0,0.13,-0.04,0.13
1.0959267616271973,0.03,0.13,-0.04,0.13
1.105787754058838,0.01,0.13,-0.07,0.14
1.1157867908477783,-0.02,0.12,-0.04,0.12
1.126098871231079,-0.02,0.1,0.0,0.1
1.135983943939209,-0.04,0.13,-0.02,0.13
1.1460278034210205,-0.08,0.15,-0.08,0.18
1.1559977531433105,-0.04,0.14,-0.11,0.18
1.166172981262207,0.01,0.11,-0.1,0.14
1.176297903060913,-0.01,0.09,-0.1,0.13
1.1863627433776855,-0.04,0.14,-0.06,0.15
1.1962847709655762,-0.03,0.16,0.01,0.16
1.206777811050415,-0.01,0.11,0.04,0.11
1.2164058685302734,0.01,0.08,-0.01,0.08
1.2265429496765137,0.02,0.12,-0.02,0.12
1.2365138530731201,0.01,0.13,-0.01,0.13
1.2466847896575928,-0.03,0.15,0.02,0.15
1.2571468353271484,-0.02,0.12,0.07,0.14
1.2675909996032715,0.02,0.08,0.1,0.12
1.2768847942352295,0.04,0.07,0.09,0.12
1.2871308326721191,-0.01,0.08,0.12,0.14
1.2970948219299316,-0.06,0.05,0.19,0.2
1.3073530197143555,-0.04,0.07,0.17,0.18
1.3170218467712402,-0.03,0.1,0.08,0.13
1.327110767364502,-0.07,0.12,0.05,0.14
1.337364673614502,-0.03,0.12,0.05,0.13
1.3473777770996094,-0.01,0.12,0.04,0.12
1.357724905014038,-0.08,0.12,0.03,0.14
1.3676438331604004,-0.09,0.12,0.04,0.15
1.3777117729187012,-0.03,0.12,-0.02,0.12
1.3875536918640137,0.04,0.12,0.0,0.12
1.3980958461761475,0.04,0.12,0.06,0.13
1.4090569019317627,0.02,0.13,0.04,0.13
1.4185209274291992,0.01,0.09,-0.04,0.09
1.4282488822937012,0.02,0.05,-0.17,0.17
1.4381837844848633,0.04,0.02,-0.12,0.12
1.4481828212738037,0.06,0.04,0.13,0.14
1.4579298496246338,-0.02,0.07,0.36,0.36
1.468416690826416,-0.2,0.15,0.39,0.46
1.4782657623291016,-0.3,0.23,0.12,0.39
1.4882268905639648,-0.05,0.18,-0.27,0.32
1.4984548091888428,0.28,0.07,-0.22,0.36
1.5084238052368164,0.21,0.06,-0.08,0.23
1.5187208652496338,0.0,0.09,0.02,0.09
1.5286478996276855,-0.25,0.1,-0.03,0.27
1.5385968685150146,-0.09,0.15,-0.13,0.21
1.548583984375,0.19,0.15,-0.03,0.24
1.558527946472168,0.13,0.05,0.0,0.13
1.5691399574279785,0.02,0.01,-0.02,0.03
1.578744888305664,-0.02,0.01,0.0,0.02
1.5889408588409424,-0.11,0.15,0.06,0.19
1.5988860130310059,-0.15,0.19,0.04,0.24
1.6091458797454834,-0.1,0.17,0.05,0.2
1.6194109916687012,-0.06,0.12,0.05,0.14
1.62907075881958,-0.05,0.11,-0.02,0.12
1.6391808986663818,-0.08,0.1,-0.01,0.12
1.649162769317627,-0.06,0.1,0.05,0.12
1.6591238975524902,-0.03,0.13,0.05,0.14
1.6721129417419434,-0.01,0.15,0.04,0.15
1.6793708801269531,-0.02,0.13,0.06,0.14
1.689408779144287,-0.03,0.14,0.06,0.15
1.6995840072631836,-0.07,0.16,0.12,0.21
1.7096338272094727,-0.12,0.08,0.22,0.26
1.7200326919555664,-0.09,0.05,0.15,0.18
1.729660987854004,-0.04,0.09,0.0,0.09
1.7404699325561523,-0.03,0.12,-0.09,0.15
1.7506380081176758,-0.01,0.14,-0.11,0.17
1.7604889869689941,0.0,0.12,-0.08,0.14
1.7708067893981934,0.0,0.11,-0.04,0.11
1.7807137966156006,-0.01,0.14,-0.05,0.14
1.790815830230713,-0.02,0.14,-0.07,0.15
1.8003287315368652,0.0,0.09,0.03,0.09
1.8100378513336182,-0.02,0.12,0.09,0.15
1.8209919929504395,-0.11,0.15,0.11,0.21
1.8312277793884277,-0.13,0.11,0.08,0.18
1.8411669731140137,-0.09,0.11,-0.01,0.14
1.851301670074463,-0.03,0.13,-0.12,0.17
1.861027717590332,0.03,0.15,-0.13,0.2
1.8713150024414062,0.03,0.13,-0.15,0.2
1.8817198276519775,-0.01,0.11,-0.15,0.18
1.8914508819580078,-0.08,0.24,-0.24,0.34
1.9017109870910645,-0.13,0.36,-0.33,0.5
1.9115338325500488,-0.11,0.26,-0.21,0.35
1.921595811843872,-0.11,0.16,-0.07,0.2
1.9319179058074951,-0.14,0.08,-0.05,0.16
1.9418838024139404,-0.15,0.07,-0.02,0.16
1.9517388343811035,-0.1,0.14,-0.06,0.18
1.961690902709961,-0.1,0.19,-0.11,0.24
1.9718778133392334,-0.1,0.17,-0.09,0.21
1.982250690460205,-0.02,0.11,0.03,0.11
1.992128849029541,0.07,0.08,0.2,0.22
2.002100944519043,-0.01,0.07,0.29,0.29
2.0120928287506104,-0.08,0.01,0.42,0.42
2.022218704223633,-0.06,-0.06,0.53,0.53
2.032578945159912,-0.05,-0.07,0.47,0.47
2.042325973510742,-0.01,-0.01,0.42,0.42
2.0523908138275146,0.05,0.01,0.45,0.45
2.062182903289795,0.07,0.01,0.45,0.45
2.0725159645080566,0.04,0.04,0.39,0.39
2.08273983001709,0.04,0.02,0.37,0.37
2.0926218032836914,0.08,0.0,0.41,0.41
2.102674961090088,0.02,0.04,0.32,0.32
2.1129698753356934,-0.03,0.1,0.13,0.16
2.1230878829956055,0.04,0.12,0.05,0.13
2.1330127716064453,0.07,0.05,0.07,0.11
2.143324851989746,0.02,0.06,0.02,0.06
2.152984857559204,0.02,0.12,-0.09,0.15
2.1629409790039062,0.03,0.15,-0.08,0.17
2.17340087890625,0.02,0.21,-0.08,0.22
2.1830039024353027,-0.02,0.16,-0.1,0.18
2.1932878494262695,0.01,0.11,-0.05,0.12
2.2031760215759277,0.03,0.11,0.03,0.11
2.2136738300323486,0.01,0.1,0.07,0.12
2.22340989112854,0.03,0.11,0.09,0.14
2.233336925506592,0.03,0.11,0.06,0.12
2.243539810180664,0.03,0.09,0.06,0.11
2.2538328170776367,0.07,0.08,0.06,0.12
2.2634828090667725,0.08,0.07,0.04,0.11
2.273603916168213,0.04,0.08,0.06,0.1
2.2845988273620605,0.03,0.09,0.07,0.11
2.2940518856048584,0.05,0.08,0.02,0.09
2.30379581451416,0.08,0.13,-0.01,0.15
2.3138999938964844,0.08,0.12,0.02,0.14
2.3243026733398438,0.08,0.07,0.04,0.11
2.334044933319092,0.05,0.05,0.08,0.1
2.344327926635742,0.05,0.06,0.13,0.15
2.354106903076172,0.01,0.11,0.13,0.17
2.3645248413085938,-0.06,0.13,0.09,0.16
2.374154806137085,-0.06,0.11,0.09,0.15
2.384262800216675,-0.06,0.09,0.08,0.13
2.3942618370056152,-0.04,0.1,0.04,0.11
2.4047279357910156,-0.01,0.12,0.02,0.12
2.414437770843506,0.01,0.1,0.02,0.1
2.424630880355835,-0.01,0.11,0.05,0.12
2.4346017837524414,-0.03,0.11,0.05,0.12
2.444936752319336,-0.06,0.1,0.11,0.16
2.4546828269958496,-0.07,0.09,0.14,0.18
2.464798927307129,-0.06,0.1,0.08,0.14
2.474766731262207,-0.04,0.11,0.07,0.13
2.484963893890381,-0.04,0.11,0.06,0.13
2.4949638843536377,-0.06,0.1,0.05,0.12
2.505011796951294,-0.05,0.1,0.01,0.11
2.515479803085327,-0.01,0.1,0.01,0.1
2.5252556800842285,0.01,0.1,0.01,0.1
2.535308837890625,-0.02,0.12,0.01,0.12
2.5452158451080322,-0.01,0.13,0.0,0.13
2.555759906768799,0.01,0.13,-0.04,0.13
2.5653319358825684,-0.04,0.13,-0.05,0.14
2.5753397941589355,-0.08,0.13,-0.07,0.16
2.5855679512023926,-0.09,0.13,-0.05,0.16
2.595850944519043,-0.09,0.13,-0.02,0.15
2.605616807937622,-0.05,0.13,-0.03,0.14
2.6156527996063232,-0.04,0.13,-0.09,0.16
2.625819683074951,-0.05,0.14,-0.12,0.19
2.635769844055176,-0.03,0.15,-0.12,0.19
2.645895004272461,-0.02,0.14,-0.06,0.15
2.6558988094329834,-0.01,0.11,-0.04,0.11
2.666200876235962,0.01,0.12,-0.07,0.13
2.676058769226074,-0.05,0.16,-0.08,0.18
2.6862387657165527,-0.07,0.16,-0.09,0.19
2.6961669921875,-0.11,0.17,-0.09,0.22
2.7066378593444824,-0.1,0.13,-0.07,0.17
2.716367721557617,-0.07,0.1,-0.02,0.12
2.726320743560791,-0.03,0.11,0.0,0.11
2.7363498210906982,-0.01,0.13,-0.01,0.13
2.7469308376312256,-0.06,0.14,-0.02,0.15
2.7565338611602783,-0.06,0.11,0.03,0.12
2.7665767669677734,-0.06,0.1,0.07,0.13
2.777033805847168,-0.09,0.1,0.05,0.14
2.7870428562164307,-0.09,0.13,0.03,0.16
2.7964088916778564,-0.06,0.13,0.0,0.14
2.8061158657073975,-0.05,0.11,0.01,0.12
2.816239833831787,-0.04,0.11,0.04,0.12
2.8267018795013428,-0.06,0.09,0.07,0.12
2.8375308513641357,-0.08,0.11,0.06,0.14
2.8471479415893555,-0.05,0.13,0.01,0.13
2.857149839401245,-0.04,0.12,0.02,0.12
2.8672118186950684,-0.06,0.13,0.01,0.14
2.8775219917297363,-0.03,0.09,0.06,0.11
2.8873298168182373,-0.05,0.09,0.1,0.14
2.8978188037872314,-0.08,0.12,0.07,0.16
2.907411813735962,-0.07,0.13,0.0,0.14
2.917418956756592,-0.04,0.12,0.01,0.12
2.9280457496643066,-0.01,0.13,-0.1,0.16
2.937854766845703,0.06,0.1,-0.13,0.17
2.9476237297058105,0.02,0.11,0.0,0.11
2.9604477882385254,-0.03,0.14,0.02,0.14
2.968657970428467,-0.04,0.14,0.05,0.15
2.980125904083252,0.06,0.13,0.09,0.16
2.9879088401794434,0.05,0.09,0.03,0.1
2.998236894607544,-0.04,0.05,0.05,0.08
3.008164882659912,-0.15,0.1,0.14,0.22
3.018589973449707,-0.2,0.19,0.16,0.31
3.028374671936035,-0.14,0.19,-0.01,0.23
3.0382766723632812,0.04,0.17,-0.3,0.34
3.055673837661743,0.15,0.13,-0.23,0.3
3.061555862426758,0.05,0.1,-0.05,0.12
3.0989978313446045,-0.12,0.11,0.01,0.16
3.1007399559020996,-0.08,0.07,0.06,0.12
3.1019158363342285,0.03,0.07,0.07,0.1
3.117341995239258,0.05,0.08,0.05,0.1
3.1189937591552734,0.0,0.1,0.08,0.12
3.1321330070495605,0.02,0.1,0.1,0.14
3.1343698501586914,0.0,0.1,0.09,0.13
3.147106885910034,0.01,0.08,0.07,0.1
3.149984836578369,0.03,0.07,0.02,0.07
3.1634459495544434,0.0,0.09,0.02,0.09
3.192178726196289,-0.02,0.11,0.07,0.13
3.1936206817626953,-0.02,0.11,0.12,0.16
3.194424867630005,-0.02,0.13,0.04,0.13
3.199763774871826,-0.01,0.14,-0.02,0.14
3.2160089015960693,0.0,0.1,0.04,0.1
3.2188398838043213,-0.04,0.1,0.13,0.16
3.2318308353424072,-0.05,0.09,0.1,0.14
3.239168882369995,0.0,0.08,0.07,0.1
3.2494096755981445,0.04,0.11,0.03,0.12
3.259403705596924,-0.01,0.1,0.03,0.1
3.2939648628234863,-0.04,0.12,0.02,0.12
3.2959909439086914,-0.02,0.15,-0.01,0.15
3.297548770904541,0.02,0.12,-0.02,0.12
3.3005688190460205,0.02,0.11,-0.01,0.11
3.309123992919922,-0.01,0.1,0.05,0.11
3.3199658393859863,-0.02,0.07,0.15,0.16
3.32950496673584,-0.03,0.07,0.17,0.18
3.3395369052886963,0.0,0.09,0.14,0.16
3.349670886993408,0.02,0.08,0.11,0.13
3.3600149154663086,0.02,0.07,0.1,0.12
3.3920297622680664,0.02,0.06,0.13,0.14
3.393507957458496,-0.01,0.06,0.17,0.18
3.3945670127868652,0.02,0.07,0.14,0.15
3.399878978729248,0.09,0.05,0.18,0.2
3.4139857292175293,0.11,-0.01,0.24,0.26
3.4199137687683105,0.14,-0.05,0.33,0.36
3.4309186935424805,0.14,-0.06,0.37,0.4
3.4403319358825684,0.06,-0.05,0.38,0.38
3.4505128860473633,0.09,0.0,0.3,0.31
3.4610068798065186,0.17,0.02,0.28,0.32
3.494306802749634,0.18,0.07,0.35,0.39
3.495576858520508,0.14,0.08,0.37,0.4
3.496668815612793,0.17,0.0,0.45,0.48
3.5171637535095215,0.28,-0.11,0.54,0.61
3.5188989639282227,0.32,-0.17,0.68,0.77
3.5316929817199707,0.35,-0.17,0.93,1.0
3.5333447456359863,0.28,-0.27,1.31,1.36
3.547123908996582,0.25,-0.35,1.7,1.75
3.551626682281494,0.41,-0.29,1.93,1.99
3.5640807151794434,0.44,-0.19,1.78,1.84
3.5946249961853027,0.14,0.02,1.17,1.17
3.596179962158203,-0.37,0.06,0.6,0.7
3.5972800254821777,-0.81,0.0,0.38,0.89
3.6173996925354004,-0.77,0.12,0.15,0.79
3.619144916534424,-0.49,0.27,-0.18,0.58
3.632446765899658,-0.36,0.29,-0.58,0.74
3.634899854660034,-0.41,0.25,-0.97,1.08
3.6477088928222656,-0.47,0.11,-1.02,1.12
3.651909828186035,-0.42,0.03,-0.85,0.94
3.664303779602051,-0.38,0.08,-0.59,0.7
3.6913347244262695,-0.54,0.18,-0.38,0.68
3.69284987449646,-0.96,0.17,-0.12,0.98
3.6939949989318848,-1.37,0.1,0.23,1.39
3.701727867126465,-1.19,-0.02,0.25,1.21
3.7115488052368164,-0.62,-0.02,-0.45,0.76
3.7216708660125732,-0.37,0.06,-1.42,1.46
3.732327938079834,-0.59,0.16,-1.77,1.87
3.742912769317627,-0.76,0.26,-1.57,1.76
3.752532958984375,-0.56,0.23,-1.32,1.45
3.762603759765625,-0.57,0.42,-1.17,1.36
3.797510862350464,-0.78,0.45,-0.49,1.02
3.7989988327026367,-0.81,0.02,0.28,0.85
3.800139904022217,-0.67,-0.11,0.44,0.8
3.817856788635254,-0.77,0.21,0.16,0.81
3.819608688354492,-1.05,0.24,0.22,1.09
3.832213878631592,-1.19,-0.03,0.0,1.19
3.834751844406128,-1.23,-0.07,-0.59,1.36
3.847580909729004,-0.98,0.19,-0.9,1.34
3.853111743927002,-0.33,0.17,-0.49,0.61
3.8640758991241455,-0.25,-0.12,-0.45,0.52
3.8957958221435547,-0.52,-0.24,-0.6,0.82
3.8973388671875,-0.22,-0.25,0.26,0.42
3.8984479904174805,0.22,-0.19,1.11,1.14
3.918275833129883,-0.11,-0.3,1.62,1.65
3.9191370010375977,-0.46,-0.4,1.56,1.67
3.9328038692474365,-0.23,-0.37,1.58,1.63
3.9353227615356445,0.09,-0.46,1.75,1.81
3.947591781616211,0.32,-0.52,1.63,1.74
3.9536237716674805,0.73,-0.26,1.21,1.43
3.9643707275390625,0.98,-0.12,0.74,1.23
3.999274730682373,0.71,-0.2,-0.34,0.81
4.000784873962402,0.42,-0.03,-1.68,1.73
4.001914978027344,0.97,0.27,-1.99,2.23
4.01836085319519,1.54,0.51,-2.19,2.72
4.0192437171936035,1.03,0.63,-3.06,3.28
4.032005786895752,-0.03,0.79,-3.74,3.82
4.033897876739502,-0.18,0.87,-3.46,3.57
4.047488689422607,0.59,0.54,-2.62,2.73
4.054042816162109,1.22,0.15,-1.97,2.32
4.064433813095093,1.44,-0.08,-1.53,2.1
4.099323749542236,1.09,0.03,-1.48,1.83
4.1008687019348145,0.36,0.32,-0.68,0.83
4.101984024047852,0.29,-0.08,0.43,0.52
4.119321823120117,0.44,-0.31,0.65,0.84
4.121094703674316,0.27,-0.23,0.88,0.94
4.1313698291778564,0.02,-0.26,1.1,1.13
4.134163856506348,-0.17,-0.16,1.0,1.02
4.147382736206055,-0.01,-0.24,1.09,1.11
4.154897689819336,0.38,-0.16,0.79,0.89
4.165065765380859,0.63,0.02,0.42,0.75
4.196506023406982,0.84,0.02,0.57,1.01
4.198013782501221,1.0,-0.06,0.79,1.27
4.199115753173828,0.74,-0.01,0.81,1.09
4.218454837799072,0.04,-0.13,0.94,0.94
4.2192018032073975,-0.53,-0.07,0.56,0.77
4.232032775878906,-0.31,0.14,0.45,0.56
4.235592842102051,0.75,0.05,0.4,0.85
4.247365951538086,1.33,-0.05,0.22,1.34
4.255515813827515,0.69,-0.04,0.33,0.76
4.265580892562866,-0.28,0.05,0.28,0.39
4.29857873916626,-0.68,0.09,-0.02,0.68
4.300177812576294,-0.39,0.23,-0.41,0.61
4.301365852355957,0.51,0.29,-0.46,0.74
4.319464683532715,0.91,0.11,-0.43,1.01
4.320314884185791,0.48,0.01,-0.09,0.48
4.3324480056762695,-0.13,0.02,-0.07,0.14
4.335627794265747,-0.36,0.21,-0.1,0.42
4.347250938415527,0.29,0.12,0.07,0.32
4.3564276695251465,1.29,0.11,-0.23,1.31
4.3662378787994385,1.33,0.08,-0.7,1.5
4.399571895599365,0.45,0.19,-0.39,0.62
4.401142835617065,-0.05,0.23,-0.13,0.26
4.402232885360718,0.1,0.13,-0.21,0.26
4.418195724487305,0.36,0.09,-0.26,0.45
4.42005181312561,1.06,0.24,-0.65,1.26
4.431806802749634,1.89,0.3,-0.99,2.15
4.435950756072998,1.73,0.22,-0.43,1.79
4.447983741760254,0.96,0.12,-0.13,0.97
4.456302881240845,0.09,0.17,-0.17,0.25
4.466874837875366,0.21,0.2,-0.15,0.32
4.501274824142456,1.09,0.14,-0.57,1.23
4.502871990203857,1.02,0.06,0.24,1.04
4.504021883010864,0.48,0.02,1.41,1.48
4.517661809921265,-0.36,-0.08,1.75,1.78
4.518832683563232,-1.29,-0.24,1.49,1.98
4.531689882278442,-1.19,-0.19,1.03,1.58
4.5368757247924805,-0.27,-0.08,0.39,0.48
4.54820990562439,0.01,0.09,0.03,0.09
4.557178974151611,-0.52,0.11,0.46,0.7
4.567403793334961,-0.81,-0.21,0.21,0.86
4.600613832473755,-1.06,-0.25,0.5,1.19
4.602139949798584,-1.66,-0.15,1.27,2.09
4.603274822235107,-2.08,0.04,1.9,2.81
4.619278907775879,-2.64,0.19,1.65,3.11
4.621031761169434,-2.97,0.31,0.62,3.04
4.631755828857422,-1.34,0.02,0.06,1.34
4.637180805206299,0.5,-0.45,-0.06,0.67
4.648132801055908,0.04,-0.43,-0.09,0.44
4.658117771148682,-0.8,-0.17,-0.23,0.84
4.667908668518066,-1.12,-0.04,-0.26,1.15
4.702439785003662,-1.08,0.35,-0.02,1.13
4.703949928283691,-0.5,0.49,-0.05,0.7
4.705077886581421,0.11,0.26,-0.19,0.34
4.717530727386475,0.44,-0.02,-0.35,0.56
4.718674898147583,0.72,-0.1,-0.37,0.81
4.731881856918335,1.29,-0.26,-0.02,1.31
4.737767696380615,1.45,-0.33,0.16,1.49
4.7482099533081055,1.08,-0.28,0.46,1.2
4.758299827575684,0.21,-0.02,0.33,0.39
4.768980979919434,-0.46,0.32,0.07,0.56
4.803280830383301,-0.52,0.43,-0.2,0.7
4.805663824081421,-0.32,0.45,-0.28,0.61
4.80682373046875,-0.47,0.5,-0.21,0.71
4.816160678863525,-0.66,0.47,-0.35,0.88
4.817912817001343,-0.42,0.28,-0.31,0.59
4.8315558433532715,-0.17,0.03,-0.16,0.23
4.838369846343994,0.02,0.2,-0.42,0.46
4.849189758300781,0.03,0.33,-0.35,0.48
4.858946800231934,0.32,0.37,-0.53,0.72
4.869179725646973,0.75,0.16,0.1,0.77
4.89960789680481,-0.06,-0.28,0.9,0.94
4.90117073059082,-2.15,-0.18,0.8,2.3
4.9023237228393555,-3.69,0.44,0.4,3.73
4.918798923492432,-3.71,1.11,-0.49,3.9
4.91965389251709,-1.9,0.52,-0.98,2.2
4.933126926422119,0.04,0.28,-1.5,1.52
4.939440727233887,0.65,0.38,-1.43,1.61
4.949695825576782,0.29,0.43,-0.89,1.03
4.960151672363281,-0.17,0.24,0.09,0.3
4.969857692718506,-0.8,0.28,1.18,1.45
5.00981879234314,-1.73,0.84,1.69,2.56
5.011894702911377,-2.23,0.85,1.67,2.91
5.013033866882324,-1.49,0.46,0.64,1.68
5.016664981842041,-0.7,0.52,-0.1,0.87
5.019205808639526,-0.44,0.64,-1.06,1.31
5.029693841934204,0.1,0.73,-1.51,1.68
5.039937973022461,0.26,0.98,-1.51,1.81
5.050140857696533,-0.28,1.23,-0.99,1.6
5.0600409507751465,-0.94,1.21,-0.43,1.59
5.070480823516846,-1.38,1.31,-0.12,1.9
5.102297782897949,-1.57,1.23,0.03,1.99
5.1039018630981445,-1.65,1.05,0.1,1.95
5.104981899261475,-1.71,1.2,0.1,2.09
5.116878986358643,-1.81,1.47,0.2,2.34
5.119779825210571,-1.82,1.71,0.08,2.49
5.132612705230713,-1.97,2.35,0.06,3.06
5.1401917934417725,-2.75,2.64,-0.08,3.81
5.151072025299072,-3.89,2.62,-0.22,4.69
5.160754680633545,-4.75,2.69,-0.43,5.47
5.171048879623413,-5.33,2.97,-0.92,6.17
5.202902793884277,-5.7,3.72,-1.49,6.96
5.204782009124756,-6.16,4.96,-1.57,8.06
5.205907821655273,-6.87,6.24,-1.56,9.41
5.218031883239746,-8.05,6.76,-1.84,10.67
5.220372676849365,-9.28,6.82,-1.89,11.67
5.233538866043091,-10.38,7.59,-2.2,13.04
5.241240978240967,-10.79,8.61,-2.12,13.96
5.251547813415527,-10.53,8.67,-1.46,13.71
5.262122869491577,-9.34,9.18,-1.28,13.15
5.271627902984619,-5.13,11.07,-1.17,12.25
5.303040981292725,-0.66,11.63,-0.42,11.65
5.3053138256073,-1.78,11.13,4.75,12.23
5.306573867797852,-5.81,9.52,5.44,12.4
5.316619873046875,-8.52,6.22,4.44,11.44
5.3213067054748535,-9.85,2.99,4.11,11.08
5.336216926574707,-10.46,0.4,4.13,11.25
5.342260837554932,-10.21,-1.05,4.39,11.16
5.351762771606445,-7.71,-0.46,4.19,8.78
5.362382888793945,-3.41,0.57,1.4,3.73
5.3722288608551025,3.62,-0.47,-2.51,4.43
5.4060728549957275,8.13,-2.05,-1.36,8.49
5.407616853713989,4.11,-1.94,0.65,4.59
5.408752918243408,-4.1,-2.22,1.28,4.83
5.416471004486084,-8.69,-4.05,2.3,9.85
5.421506881713867,-11.52,-5.6,2.86,13.12
5.4321370124816895,-12.88,-5.98,1.98,14.33
5.442256927490234,-10.86,-5.01,0.51,11.97
5.452771902084351,-6.48,-4.16,-0.42,7.71
5.462821006774902,-4.06,-3.64,-1.03,5.54
5.472827911376953,-3.04,-3.47,-1.3,4.79
5.504112720489502,-3.08,-3.64,-1.27,4.93
5.505692005157471,-3.79,-3.99,-1.01,5.59
5.506825923919678,-4.56,-4.17,-0.77,6.22
5.516796827316284,-4.92,-3.78,-0.79,6.25
5.522166728973389,-4.91,-2.91,-0.9,5.77
5.534064769744873,-4.46,-1.9,-0.95,4.94
5.542979717254639,-3.66,-0.89,-0.66,3.82
5.552999019622803,-2.58,0.0,-0.4,2.61
5.563823699951172,-1.39,0.53,-0.48,1.56
5.573368787765503,-0.24,1.25,-0.84,1.52
5.6055989265441895,1.08,2.45,-1.81,3.23
5.6071648597717285,2.89,3.59,-3.07,5.53
5.60829496383667,5.0,4.1,-3.87,7.53
5.616590976715088,6.63,4.2,-4.06,8.83
5.623041868209839,7.15,4.26,-3.42,8.99
5.633479833602905,7.52,5.23,-2.76,9.56
5.644169807434082,7.14,6.63,-1.84,9.91
5.653751850128174,7.15,8.49,0.29,11.1
5.664196968078613,7.98,9.74,3.04,12.95
5.6738808155059814,9.54,9.57,5.28,14.5
5.7081828117370605,11.14,8.59,5.72,15.18
5.7097837924957275,11.05,7.59,5.11,14.34
5.710949897766113,8.95,5.65,4.92,11.67
5.717495918273926,6.9,4.07,5.11,9.5
5.723927021026611,6.99,3.7,4.55,9.12
5.733966827392578,9.46,2.8,4.11,10.68
5.743834018707275,11.41,1.94,3.17,12.0
5.754309892654419,12.03,2.43,0.48,12.28
5.764611721038818,14.54,2.57,-3.89,15.26
5.774682998657227,16.05,3.23,-8.51,18.45
5.80904483795166,14.41,4.89,-16.7,22.59
5.810601711273193,4.17,8.89,-14.81,17.76
5.81181001663208,-11.26,8.19,5.85,15.1
5.818665981292725,-13.01,5.78,8.51,16.58
5.824069976806641,-2.17,2.23,4.67,5.61
5.8347837924957275,6.04,1.34,3.41,7.06
5.84443473815918,7.5,4.97,3.49,9.65
5.85505485534668,9.9,1.11,8.19,12.89
5.865103721618652,9.71,-2.83,6.32,11.92
5.875366687774658,3.04,-0.6,3.57,4.72
5.907291889190674,-1.05,-0.03,0.85,1.35
5.908880710601807,-2.62,1.48,-0.89,3.13
5.910008907318115,-1.3,1.58,-2.61,3.31
5.917016983032227,1.99,0.81,-3.9,4.45
5.925111770629883,4.78,0.31,-4.16,6.34
5.935103893280029,5.41,-0.02,-3.16,6.26
5.945924758911133,3.8,-0.3,-1.09,3.96
5.9556708335876465,1.14,-0.4,1.02,1.58
5.965820789337158,-1.14,-0.17,2.17,2.45
5.975945949554443,-2.49,-0.15,2.81,3.75
6.010756015777588,-2.97,-0.23,2.71,4.02
6.012862682342529,-2.53,-0.04,0.99,2.71
6.014007806777954,-1.34,0.34,-1.15,1.79
6.017273902893066,0.11,0.43,-1.85,1.9
6.025791883468628,1.31,0.05,-1.84,2.25
6.03580379486084,2.04,-0.32,-1.49,2.54
6.045837879180908,1.75,-0.42,-0.34,1.83
6.056267738342285,0.16,-0.08,0.48,0.51
6.066526889801025,-1.69,0.28,1.18,2.08
6.076417922973633,-2.61,0.26,1.41,2.97
6.1115570068359375,-2.46,0.09,1.07,2.68
6.113114833831787,-1.64,0.0,0.47,1.7
6.114250898361206,-0.84,0.14,0.04,0.85
6.11731481552124,-0.89,0.23,-0.04,0.92
6.125793933868408,-1.31,0.24,-0.09,1.33
6.136792898178101,-1.36,0.01,0.35,1.4
6.146206855773926,-1.26,0.01,0.56,1.37
6.156656742095947,-1.05,0.19,0.52,1.18
6.167219877243042,-0.64,0.35,0.65,0.97
6.177020788192749,-0.35,0.24,0.8,0.9
6.211477756500244,-0.54,0.2,0.65,0.86
6.2130208015441895,-0.89,0.19,0.41,0.99
6.214122772216797,-1.0,0.14,0.14,1.01
6.217250823974609,-0.84,0.2,0.08,0.86
6.2263898849487305,-0.81,0.29,0.1,0.86
6.236915826797485,-0.82,0.34,-0.05,0.88
6.247159957885742,-0.65,0.34,0.28,0.78
6.257253885269165,-0.39,0.14,0.65,0.77
6.267194747924805,-0.39,0.01,0.97,1.04
6.2776198387146,-0.75,0.54,0.82,1.23
6.3139729499816895,-1.09,1.45,-0.01,1.81
6.315539836883545,-1.43,1.85,-0.54,2.39
6.316745758056641,-1.9,1.75,-0.85,2.71
6.335381984710693,-2.46,2.0,-0.95,3.3
6.337203025817871,-3.2,2.68,-0.73,4.23
6.353140830993652,-3.99,3.46,-0.54,5.3
6.355749845504761,-4.71,4.25,-0.42,6.35
6.3645288944244385,-5.11,5.15,-0.6,7.27
6.368332862854004,-5.4,6.35,-0.79,8.37
6.381685733795166,-5.98,7.89,-0.59,9.91
6.409003734588623,-7.44,9.25,-0.16,11.87
6.4105939865112305,-9.3,9.71,-0.38,13.45
6.41179895401001,-9.19,9.65,-0.62,13.34
6.4177727699279785,-10.06,9.82,-0.99,14.09
6.427736759185791,-12.7,9.87,-0.42,16.08
6.438514709472656,-14.29,10.0,1.23,17.48
6.448146820068359,-13.71,9.78,1.98,16.95
6.458428859710693,-6.95,9.02,3.78,11.99
6.468801975250244,0.85,9.38,3.65,10.1
6.479325771331787,5.3,6.3,4.82,9.54
6.511612892150879,3.62,2.66,5.06,6.76
6.513131856918335,-1.92,0.62,4.13,4.59
6.514280796051025,-7.17,-1.01,3.72,8.14
6.5181968212127686,-10.17,-2.6,3.46,11.05
6.528351783752441,-9.74,-3.94,4.22,11.32
6.538774013519287,-5.53,-2.74,5.82,8.48
6.549123764038086,-0.01,-1.77,2.33,2.92
6.559176921844482,6.09,-3.8,-1.11,7.26
6.5693628787994385,6.84,-5.15,0.4,8.57
6.579697847366333,-1.23,-3.82,1.27,4.2
6.612227916717529,-6.92,-4.14,1.06,8.13
6.613787889480591,-9.31,-5.8,1.52,11.07
6.614956855773926,-10.99,-6.43,1.36,12.8
6.618854999542236,-10.91,-5.59,0.91,12.29
6.629243850708008,-6.69,-5.0,0.53,8.36
6.639427900314331,-3.42,-4.46,0.13,5.62
6.649420738220215,-2.25,-3.85,-0.24,4.46
6.65976881980896,-2.0,-3.68,-0.23,4.19
6.670161724090576,-2.5,-3.96,0.17,4.68
6.680141925811768,-3.13,-4.1,0.63,5.19
6.713500022888184,-3.45,-3.85,0.97,5.25
6.715132713317871,-3.47,-3.27,1.1,4.89
6.7162699699401855,-3.26,-2.43,1.09,4.2
6.735604763031006,-2.9,-1.56,1.39,3.57
6.7373878955841064,-2.64,-0.73,2.07,3.43
6.749486923217773,-2.49,0.05,2.53,3.55
6.751424789428711,-2.17,0.88,2.49,3.41
6.765419960021973,-1.48,1.75,2.03,3.06
6.770407676696777,-0.39,2.51,1.36,2.88
6.781759738922119,0.97,3.32,0.48,3.49
6.810601711273193,2.35,4.12,-0.38,4.75
6.812078952789307,3.51,4.86,-0.84,6.05
6.813251972198486,4.23,5.66,-1.13,7.15
6.820413827896118,4.56,6.28,-1.19,7.85
6.832808971405029,4.57,6.76,-1.17,8.24
6.840231895446777,4.03,6.61,-0.94,7.79
6.850424766540527,3.38,6.83,-0.42,7.63
6.861228942871094,3.55,7.73,0.05,8.5
6.871021747589111,4.85,7.68,-0.35,9.08
6.881485939025879,7.52,7.71,0.38,10.77
6.913046836853027,10.47,7.11,1.98,12.8
6.914402008056641,12.86,5.08,2.08,13.98
6.9155519008636475,14.56,3.42,-0.18,14.95
6.93669581413269,15.55,2.42,-2.33,15.9
6.937860012054443,14.35,2.58,-0.89,14.6
6.950835704803467,12.35,2.01,-0.7,12.53
6.9532928466796875,10.64,1.05,-4.57,11.62
6.965404987335205,10.38,0.34,-10.16,14.52
6.971860885620117,8.63,-0.24,-17.39,19.41
6.982590675354004,0.4,4.25,-18.15,18.64
7.015582799911499,-9.14,11.72,-2.18,15.02
7.017184734344482,-7.11,17.56,11.19,22.0
7.018329858779907,6.42,11.56,6.6,14.77
7.036719799041748,12.73,6.6,-8.38,16.6
7.037509918212891,6.49,-0.82,-8.73,10.9
7.051181793212891,-2.46,-5.29,5.02,7.69
7.053769826889038,-5.14,-8.28,20.09,22.32
7.065785884857178,-5.6,-6.82,13.41,16.05
7.07220983505249,-4.59,-1.2,-3.19,5.71
7.083184719085693,0.91,1.88,-7.56,7.84
7.116366863250732,6.05,2.82,-4.83,8.23
7.117953777313232,10.06,1.44,-3.08,10.61
7.11910080909729,10.28,-0.55,-2.18,10.52
7.136736869812012,5.34,-1.09,-1.75,5.72
7.137593746185303,0.41,-0.38,-1.07,1.2
7.1500818729400635,-2.1,0.14,0.64,2.19
7.152788877487183,-2.08,0.01,2.3,3.1
7.165547847747803,-1.19,0.02,1.84,2.19
7.172799825668335,-0.02,0.24,0.67,0.71
7.182915687561035,1.18,0.18,-0.19,1.2
7.216724872589111,1.87,0.05,-0.69,1.99
7.218373775482178,1.77,0.04,-0.76,1.92
7.21952486038208,0.84,0.15,-0.52,0.99
7.236735820770264,-0.2,0.33,-0.13,0.4
7.237574815750122,-0.8,0.47,0.23,0.95
7.249903678894043,-1.02,0.49,0.34,1.18
7.253182888031006,-0.87,0.28,0.23,0.94
7.265622854232788,-0.69,-0.09,0.07,0.69
7.273939847946167,-0.68,-0.39,-0.04,0.78
7.283761978149414,-0.78,-0.32,-0.05,0.84
7.316244840621948,-0.88,0.13,-0.07,0.89
7.317577838897705,-0.87,0.39,0.19,0.97
7.318718910217285,-0.67,0.15,0.46,0.82
7.337873935699463,-0.49,-0.22,0.61,0.81
7.339744806289673,-0.21,-0.23,0.55,0.63
7.348472833633423,-0.07,-0.06,0.51,0.51
7.353631019592285,-0.22,0.15,0.18,0.32
7.367157936096191,-0.14,0.21,-0.13,0.28
7.373926877975464,-0.05,0.29,-0.17,0.33
7.384333848953247,-0.33,0.44,-0.11,0.56
7.415236949920654,-0.72,0.51,-0.26,0.91
7.416811943054199,-0.7,0.5,-0.34,0.92
7.417908668518066,-0.39,0.5,-0.15,0.65
7.437476873397827,-0.25,0.69,-0.07,0.73
7.439336776733398,-0.65,1.0,0.22,1.21
7.449453830718994,-1.37,1.16,0.33,1.82
7.454336881637573,-1.9,1.26,0.31,2.3
7.465818881988525,-2.11,1.26,0.31,2.47
7.474826812744141,-2.25,1.35,0.21,2.63
7.484997749328613,-2.38,1.67,0.15,2.91
7.5199408531188965,-2.42,2.15,-0.05,3.23
7.5215067863464355,-2.24,2.56,0.04,3.4
7.522641897201538,-2.32,2.82,0.12,3.65
7.53580379486084,-2.94,2.95,0.0,4.16
7.537587881088257,-3.53,3.23,-0.16,4.78
7.551140785217285,-3.82,3.63,-0.14,5.27
7.554674863815308,-4.03,4.12,-0.28,5.77
7.566310882568359,-4.38,4.71,-0.28,6.43
7.5754148960113525,-5.21,5.27,-0.2,7.41
7.585845947265625,-6.35,6.09,-0.42,8.8
7.61804986000061,-7.85,6.86,-0.6,10.44
7.619610786437988,-9.71,7.69,-0.84,12.41
7.620772838592529,-10.57,8.5,-0.87,13.59
7.637526988983154,-10.06,8.67,-0.68,13.29
7.63900089263916,-13.39,9.44,-0.66,16.39
7.6500749588012695,-15.4,10.48,0.08,18.62
7.655563831329346,-15.42,10.57,0.8,18.71
7.665944814682007,-9.0,10.7,3.39,14.38
7.675858974456787,-0.64,11.61,3.0,12.0
7.686070919036865,4.93,7.92,3.25,9.87
7.720427989959717,3.91,3.08,4.17,6.49
7.721974849700928,-1.97,1.03,3.87,4.46
7.723090887069702,-7.49,-0.55,3.43,8.25
7.734947681427002,-10.7,-1.92,3.2,11.33
7.736149787902832,-10.72,-2.6,4.58,11.94
7.751243829727173,-6.17,-1.39,6.1,8.78
7.756119728088379,0.12,-1.16,1.38,1.8
7.766497850418091,7.54,-3.54,-1.74,8.5
7.777328014373779,9.26,-5.77,0.39,10.91
7.787028789520264,1.08,-4.8,1.53,5.15
7.819261789321899,-5.5,-4.69,1.72,7.42
7.820896863937378,-8.07,-6.49,1.24,10.42
7.822041988372803,-9.96,-7.55,-0.1,12.49
7.836907863616943,-10.89,-6.58,-0.92,12.75
7.838050842285156,-8.68,-5.01,-0.82,10.05
7.850835800170898,-4.85,-4.49,-0.46,6.62
7.856462001800537,-3.01,-4.21,-0.35,5.18
7.867118835449219,-2.27,-3.71,-0.37,4.36
7.877075672149658,-1.71,-3.62,-0.7,4.06
7.887589931488037,-1.33,-3.94,-1.03,4.28
7.919010877609253,-1.28,-3.96,-1.08,4.29
7.920423984527588,-1.44,-3.65,-1.16,4.09
7.921574831008911,-2.09,-3.32,-1.48,4.19
7.937147855758667,-2.83,-2.8,-0.78,4.05
7.938040733337402,-3.39,-2.26,0.86,4.16
7.950707912445068,-3.22,-1.72,2.32,4.32
7.9571897983551025,-1.94,-0.75,2.81,3.49
7.9678778648376465,-0.45,0.57,2.58,2.68
7.977540016174316,0.62,1.88,2.02,2.82
7.987963676452637,1.46,2.88,1.86,3.72
8.021763801574707,2.08,3.52,2.16,4.62
8.023313999176025,2.17,4.43,2.44,5.5
8.024434804916382,1.95,5.35,2.01,6.03
8.034398794174194,2.01,6.24,1.45,6.71
8.037563800811768,2.34,7.61,1.59,8.11
8.05052375793457,2.82,8.16,2.0,8.86
8.05765986442566,3.3,8.39,2.73,9.41
8.06828784942627,3.48,8.87,3.11,10.02
8.078569889068604,4.02,8.74,3.73,10.31
8.088514804840088,6.33,6.79,2.95,9.74
8.119163990020752,8.61,5.45,0.96,10.23
8.120728015899658,8.72,4.2,-0.33,9.68
8.121884822845459,8.73,3.09,-1.31,9.35
8.13628101348877,10.94,2.37,-2.69,11.51
8.137813806533813,14.08,2.29,-3.53,14.69
8.151469707489014,16.17,1.78,-4.17,16.79
8.158557891845703,15.68,1.49,-5.72,16.75
8.168832778930664,13.15,2.42,-9.24,16.25
8.179313898086548,12.9,2.86,-14.81,19.84
8.189188957214355,9.33,6.06,-21.76,24.43
8.221704959869385,-3.35,9.51,-8.63,13.27
8.223270893096924,-8.31,14.71,7.72,18.57
8.224435806274414,2.24,16.36,3.57,16.89
8.235038757324219,11.08,10.46,-8.26,17.33
8.23850393295288,1.23,-1.63,-6.17,6.49
8.250863790512085,-6.31,-4.79,3.65,8.72
8.259299755096436,-5.72,-7.56,16.72,19.22
8.26951289176941,-2.03,-7.74,17.57,19.3
8.280013799667358,1.09,-3.63,1.82,4.2
8.28975772857666,3.94,-0.07,-5.87,7.07
8.322779893875122,5.31,2.35,-5.73,8.15
8.324381828308105,5.43,3.43,-4.62,7.91
8.325589895248413,4.62,2.14,-3.92,6.42
8.334726810455322,2.86,0.01,-2.97,4.12
8.339398860931396,1.14,-0.8,-1.21,1.84
8.350414752960205,0.33,-1.18,1.59,2.0
8.35956883430481,-0.25,-1.26,3.73,3.94
8.370341777801514,-1.13,-0.76,3.76,3.99
8.38107681274414,-1.34,-0.13,2.17,2.55
8.390546798706055,-0.62,0.34,0.36,0.79
8.420055866241455,0.22,0.53,-0.81,0.99
8.421652793884277,0.68,0.33,-0.94,1.2
8.422822952270508,0.6,0.02,-0.48,0.76
8.43649673461914,0.13,0.07,0.17,0.22
8.43992567062378,-0.55,0.12,0.69,0.89
8.450668811798096,-1.18,0.08,0.69,1.36
8.460208892822266,-1.26,0.07,0.53,1.36
8.470648765563965,-0.96,0.17,0.15,0.98
8.48100471496582,-0.66,0.23,-0.31,0.76
8.491238832473755,-0.68,0.24,-0.4,0.82
8.523169994354248,-0.32,0.33,-0.48,0.66
8.524726867675781,-0.03,0.17,-0.18,0.24
8.525863885879517,-0.09,0.1,-0.13,0.18
8.53486680984497,0.09,0.15,-0.03,0.17
8.540349960327148,0.25,0.28,-0.06,0.38
8.551106929779053,0.26,0.34,-0.17,0.46
8.56130075454712,0.1,0.37,-0.19,0.42
8.57124376296997,-0.09,0.43,-0.15,0.46
8.581746816635132,-0.14,0.43,-0.27,0.52
8.591479778289795,-0.24,0.43,-0.12,0.5
8.624506950378418,-0.56,0.46,-0.24,0.76
8.62607479095459,-0.84,0.7,-0.63,1.26
8.627228736877441,-1.11,0.88,-0.38,1.46
8.634881019592285,-1.55,0.94,-0.15,1.81
8.641252994537354,-1.94,1.13,0.17,2.25
8.65132188796997,-2.36,1.44,0.48,2.8
8.661765813827515,-2.68,1.74,0.45,3.22
8.671772956848145,-2.57,2.01,0.3,3.27
8.682320833206177,-2.39,2.14,0.42,3.23
8.692036867141724,-2.5,2.28,0.58,3.43
8.726511001586914,-2.86,2.46,0.45,3.79
8.728075981140137,-2.96,2.49,0.25,3.87
8.729256868362427,-3.06,2.68,-0.07,4.06
8.734917879104614,-3.34,2.88,0.0,4.41
8.741448879241943,-3.73,3.19,-0.04,4.9
8.751978874206543,-4.42,3.58,0.18,5.69
8.76199984550476,-5.27,4.16,0.01,6.71
8.772458791732788,-6.05,5.03,-0.28,7.87
8.782819747924805,-6.81,5.88,-0.43,9.0
8.79312801361084,-8.4,6.72,-0.71,10.78
8.824866771697998,-9.33,7.38,-0.84,11.92
8.826445817947388,-10.07,7.4,-0.77,12.52
8.827627897262573,-13.09,8.47,-1.03,15.62
8.835095882415771,-14.29,9.13,-0.76,16.97
8.842072010040283,-13.23,10.02,0.1,16.59
8.852537870407104,-7.51,11.44,2.31,13.87
8.8626127243042,-1.18,13.08,4.2,13.78
8.873323917388916,2.69,11.21,4.5,12.37
8.883199691772461,1.16,7.11,4.51,8.49
8.893268823623657,-3.41,3.76,4.12,6.53
8.92696475982666,-7.27,1.14,3.36,8.08
8.928532838821411,-9.9,-0.87,2.81,10.32
8.929746866226196,-11.07,-2.27,3.56,11.84
8.935240745544434,-8.3,-1.86,6.24,10.54
8.94327688217163,-2.27,-0.93,4.38,5.02
8.953227996826172,5.64,-2.17,-1.62,6.25
8.963807821273804,10.56,-4.96,-1.86,11.81
8.973631858825684,4.22,-5.01,0.51,6.57
8.984169006347656,-4.71,-3.96,1.34,6.29
8.99400782585144,-8.23,-5.24,1.03,9.81
9.027665853500366,-10.63,-7.17,-0.2,12.82
9.029223918914795,-12.35,-7.62,-1.03,14.54
9.030422687530518,-11.63,-5.96,-1.12,13.11
9.03527283668518,-6.6,-5.14,-0.85,8.4
9.050276756286621,-3.57,-4.44,-1.08,5.79
9.054027795791626,-2.75,-3.71,-1.53,4.86
9.066505908966064,-2.57,-3.4,-1.94,4.68
9.074280738830566,-3.06,-3.24,-1.87,4.83
9.084272861480713,-3.68,-3.08,-1.52,5.03
9.094935894012451,-4.16,-2.8,-1.02,5.11
9.127846717834473,-4.52,-2.32,-0.61,5.11
9.129101753234863,-4.55,-1.52,-0.04,4.79
9.130303859710693,-4.21,-0.49,0.8,4.31
9.13524580001831,-3.48,0.11,1.61,3.83
9.151043891906738,-2.46,0.51,1.59,2.97
9.154568672180176,-1.4,1.2,0.77,1.99
9.166945934295654,-0.6,2.36,-0.51,2.48
9.175696849822998,0.43,3.78,-1.88,4.24
9.18510389328003,1.89,5.06,-2.7,6.03
9.195140838623047,3.48,5.96,-3.01,7.52
9.229277849197388,4.98,6.8,-3.04,8.96
9.230673789978027,5.79,7.06,-2.97,9.6
9.231812000274658,5.78,7.41,-2.92,9.84
9.235507011413574,5.19,8.06,-2.41,9.88
9.24509572982788,4.18,9.48,-1.74,10.5
9.255070686340332,4.98,8.91,0.36,10.21
9.265625,7.94,7.46,0.99,10.93
9.27550482749939,10.59,6.3,1.74,12.44
9.286482810974121,12.26,5.4,1.71,13.5
9.296195983886719,9.66,4.98,1.29,10.94
9.328942775726318,7.05,4.52,1.91,8.58
9.330517768859863,9.76,2.55,0.92,10.12
9.331666946411133,11.01,2.78,2.68,11.66
9.335518836975098,10.98,1.67,1.78,11.24
9.345142841339111,11.66,1.16,-1.44,11.8
9.355546951293945,12.16,1.43,-3.65,12.77
9.366012811660767,12.23,2.33,-6.01,13.82
9.376129865646362,10.93,2.91,-14.93,18.73
9.386183738708496,1.13,7.56,-10.67,13.12
9.396671772003174,-9.45,9.77,7.4,15.47
9.426986694335938,-8.01,9.96,7.08,14.61
9.42858600616455,1.77,12.29,4.85,13.33
9.429773807525635,8.66,6.01,3.61,11.14
9.436238765716553,12.06,1.55,-9.12,15.19
9.445995807647705,5.89,-3.87,0.78,7.09
9.456349849700928,-1.25,-6.47,10.56,12.44
9.466372966766357,-2.36,-5.81,9.45,11.34
9.476858854293823,-0.77,-2.52,-1.15,2.87
9.486735820770264,2.66,0.53,-6.55,7.08
9.497278690338135,6.21,1.67,-4.53,7.86
9.528573989868164,7.26,2.1,-3.14,8.18
9.53013277053833,5.25,1.42,-2.27,5.89
9.531291007995605,2.38,-0.13,-1.25,2.69
9.536332845687866,0.16,-0.78,-0.13,0.8
9.550582885742188,-0.8,-0.61,1.2,1.56
9.556708812713623,-0.64,-0.42,2.28,2.4
9.56673789024353,-0.26,-0.15,2.11,2.13
9.57741379737854,0.16,0.22,1.09,1.12
9.587631702423096,0.6,0.35,0.19,0.72
9.59798002243042,1.2,0.08,-0.36,1.25
9.631732940673828,1.51,-0.05,-0.62,1.63
9.633097887039185,0.97,0.12,-0.36,1.04
9.634238719940186,-0.07,0.39,0.12,0.41
9.654773712158203,-0.8,0.42,0.55,1.05
9.656571865081787,-0.97,0.21,0.78,1.26
9.667598724365234,-0.69,-0.11,0.78,1.04
9.669307708740234,-0.34,-0.33,0.58,0.74
9.683440685272217,0.0,-0.19,0.34,0.38
9.687959671020508,0.23,-0.15,0.18,0.32
9.700429916381836,0.18,-0.22,0.05,0.28
9.73116683959961,-0.09,0.0,0.0,0.09
9.732703685760498,0.42,0.25,-0.21,0.53
9.73387098312378,1.48,0.0,-0.52,1.56
9.755018711090088,0.48,-0.08,-0.4,0.62
9.756850719451904,-0.85,0.15,-0.54,1.01
9.768972873687744,-1.2,0.2,-0.2,1.23
9.770731925964355,-1.45,0.34,-0.14,1.49
9.78383183479309,-1.63,0.45,0.09,1.69
9.788465023040771,-1.78,0.61,0.38,1.91
9.80075979232788,-2.02,0.69,0.66,2.23
9.832606792449951,-2.12,0.67,0.68,2.32
9.834028720855713,-2.03,0.61,1.33,2.5
9.835190773010254,-1.9,0.0,0.99,2.14
9.855729818344116,-1.45,0.21,0.49,1.54
9.857549905776978,-1.44,1.06,0.36,1.82
9.86842679977417,-1.66,1.38,-0.17,2.16
9.870076894760132,-1.78,1.19,-0.34,2.16
9.883350849151611,-2.14,1.77,-0.39,2.8
9.889045715332031,-2.67,2.55,-0.3,3.7
9.900898933410645,-3.1,2.77,-0.62,4.2
9.909835815429688,-3.08,2.5,-1.03,4.09
9.919920921325684,-2.8,2.37,-1.01,3.8
9.930218696594238,-3.09,2.76,-0.34,4.15
9.939974784851074,-3.96,3.45,0.76,5.3
9.980523824691772,-5.15,4.26,1.19,6.78
9.982147693634033,-6.17,5.3,1.08,8.2
9.983260869979858,-6.56,6.63,0.67,9.35
9.985573768615723,-5.79,7.86,0.11,9.76
9.989083766937256,-7.33,8.37,-1.05,11.17
9.999239921569824,-10.88,9.26,-2.18,14.45
10.009866714477539,-13.1,10.13,-2.89,16.81
10.019811868667603,-14.58,10.03,-3.3,18.0
10.030166864395142,-15.06,9.89,-2.31,18.16
10.04046082496643,-15.68,10.03,0.2,18.61
10.074319839477539,-12.7,9.44,2.57,16.03
10.07592487335205,-4.27,10.97,2.31,11.99
10.077095985412598,4.41,10.95,0.64,11.82
10.085486888885498,7.78,5.43,4.11,10.33
10.089568853378296,1.87,0.99,5.97,6.33
10.100488901138306,-6.41,-0.8,5.26,8.33
10.110194683074951,-11.12,-2.79,4.39,12.27
10.120455741882324,-12.99,-4.33,4.21,14.32
10.131014823913574,-12.19,-4.76,6.35,14.54
10.14079999923706,-5.63,-2.61,7.1,9.42
10.172670841217041,1.07,-1.74,1.22,2.37
10.174280881881714,8.36,-4.17,-3.63,10.02
10.17546272277832,9.66,-6.03,-0.06,11.38
10.185895919799805,0.39,-5.48,1.51,5.69
10.190217018127441,-6.44,-5.26,1.29,8.41
10.201906681060791,-8.75,-6.81,0.72,11.11
10.210740804672241,-10.68,-6.92,-1.31,12.79
10.221522808074951,-11.23,-4.52,-2.26,12.31
10.231793880462646,-7.48,-2.89,-1.81,8.22
10.241382837295532,-3.4,-2.78,-0.51,4.42
10.27539587020874,-1.61,-2.78,0.09,3.21
10.27690076828003,-0.96,-3.01,0.2,3.16
10.278044700622559,-1.33,-3.29,0.27,3.55
10.286147832870483,-2.03,-3.4,0.58,4.0
10.29092288017273,-2.42,-3.31,0.93,4.2
10.304480791091919,-2.69,-2.85,1.32,4.13
10.311069011688232,-3.11,-2.17,1.75,4.17
10.321597814559937,-3.32,-1.28,2.25,4.2
10.331339836120605,-3.21,-0.39,3.08,4.46
10.342260837554932,-2.6,0.4,3.65,4.49
10.373656749725342,-1.58,1.23,3.48,4.01
10.375232696533203,-0.37,2.3,2.67,3.54
10.376368999481201,0.85,3.47,1.81,4.0
10.387303829193115,1.99,4.63,1.21,5.18
10.391409873962402,2.93,5.48,0.86,6.27
10.401798725128174,3.62,6.6,1.1,7.6
10.411722898483276,4.03,7.26,1.34,8.41
10.422855854034424,4.23,6.83,1.71,8.21
10.432368755340576,4.19,7.29,2.16,8.68
10.44256067276001,4.12,8.7,1.16,9.69
10.477555751800537,4.8,8.93,1.84,10.3
10.479106903076172,7.19,7.57,2.89,10.83
10.48029375076294,10.2,6.12,3.92,12.52
10.485727787017822,11.54,4.8,3.77,13.05
10.49195671081543,12.33,3.19,1.72,12.85
10.502378940582275,11.78,3.3,-0.43,12.24
10.512643814086914,10.79,2.14,-0.1,11.0
10.522969722747803,9.92,1.84,-0.11,10.08
10.533648014068604,10.28,1.21,-2.13,10.56
10.543579816818237,11.05,1.3,-5.97,12.62
10.577662944793701,11.95,2.24,-9.11,15.19
10.579163789749146,12.97,1.83,-15.74,20.47
10.580453872680664,10.44,5.07,-23.48,26.19
10.586291790008545,-2.89,13.03,-7.59,15.35
10.593300819396973,-8.1,14.53,11.78,20.38
10.603507995605469,0.76,13.39,14.2,19.53
10.613564014434814,11.31,7.29,3.16,13.82
10.623664855957031,11.61,0.06,-9.29,14.86
10.63366985321045,1.17,-5.75,-0.87,5.93
10.644001960754395,-4.55,-8.4,13.41,16.46
10.677976846694946,-5.52,-6.12,17.23,19.09
10.679504871368408,-4.3,-1.53,3.15,5.54
10.680669784545898,-0.31,1.93,-10.27,10.45
10.68650197982788,4.73,3.3,-9.14,10.8
10.693527698516846,8.98,2.43,-4.65,10.4
10.703352928161621,10.1,0.49,-3.28,10.63
10.71370267868042,7.0,-1.02,-1.83,7.3
10.72443675994873,2.11,-1.37,-0.94,2.68
10.73413896560669,-1.78,-0.73,1.13,2.23
10.74459981918335,-3.41,-0.24,3.27,4.73
10.778810024261475,-2.96,0.09,3.73,4.76
10.780433893203735,-1.5,0.42,1.87,2.43
10.781590938568115,-0.03,0.44,-0.25,0.5
10.78569483757019,1.17,0.14,-1.0,1.54
10.801414012908936,1.9,-0.13,-0.56,1.98
10.803871870040894,1.27,-0.01,-0.36,1.32
10.816683769226074,-0.42,0.31,0.08,0.52
10.825179815292358,-1.88,0.41,0.81,2.08
10.834702014923096,-2.31,0.28,0.87,2.48
10.84515380859375,-1.58,0.09,0.52,1.66
10.878644943237305,-0.54,0.01,0.38,0.66
10.880023956298828,-0.11,-0.07,0.28,0.3
10.881200790405273,-0.43,0.02,0.05,0.43
10.88588571548462,-0.71,0.31,-0.01,0.77
10.901096820831299,-0.4,0.37,0.13,0.56
10.904484748840332,-0.22,0.2,0.16,0.33
10.916724681854248,0.07,0.2,0.04,0.21
10.92514181137085,0.38,0.41,-0.05,0.56
10.935580730438232,0.64,0.54,-0.23,0.86
10.945796012878418,0.45,0.42,0.05,0.61
10.979882717132568,0.01,0.31,0.48,0.57
10.981284856796265,-0.31,0.32,0.32,0.54
10.982444763183594,-0.6,0.4,-0.22,0.75
10.986437797546387,-0.69,0.73,-0.65,1.19
10.995347023010254,-0.94,0.83,-0.41,1.31
11.005414962768555,-1.18,0.93,-0.36,1.54
11.01555871963501,-1.49,1.05,-0.06,1.82
11.025784969329834,-2.02,1.09,0.2,2.3
11.035841941833496,-2.56,1.18,0.41,2.84
11.04626178741455,-2.76,1.38,0.61,3.14
11.082215785980225,-2.8,1.58,0.61,3.27
11.083699703216553,-2.83,1.76,0.6,3.38
11.084877014160156,-2.87,2.01,0.49,3.53
11.105478763580322,-2.89,2.24,0.35,3.67
11.107302904129028,-2.96,2.41,0.2,3.82
11.11855697631836,-3.15,2.83,0.31,4.24
11.120347023010254,-3.76,3.47,0.52,5.14
11.134917736053467,-4.71,4.06,0.54,6.24
11.137374877929688,-5.47,4.47,0.12,7.06
11.151264905929565,-5.73,5.07,-0.42,7.66
11.177206993103027,-6.36,5.82,-0.82,8.65
11.17878770828247,-7.6,6.44,-1.08,10.01
11.179965019226074,-8.21,7.09,-1.35,10.93
11.18660593032837,-9.28,7.73,-2.0,12.24
11.196518898010254,-13.96,8.7,-2.83,16.69
11.206859827041626,-15.88,8.86,-2.6,18.36
11.216770887374878,-16.4,9.08,-1.8,18.83
11.227239847183228,-13.97,9.62,0.22,16.96
11.237570762634277,-6.81,11.09,2.99,13.35
11.2477388381958,1.25,13.39,3.09,13.79
11.284428834915161,6.23,10.44,5.0,13.14
11.285987854003906,4.69,4.36,6.57,9.17
11.287150859832764,-1.31,1.14,4.99,5.28
11.305332899093628,-6.96,-0.52,3.59,7.84
11.306761741638184,-10.44,-1.96,2.98,11.03
11.318450927734375,-11.29,-2.59,4.38,12.38
11.320253849029541,-7.35,-1.14,6.58,9.93
11.334686756134033,-1.17,-0.62,2.15,2.52
11.337692737579346,6.55,-2.77,-2.87,7.66
11.351274967193604,9.65,-5.07,-0.26,10.9
11.377489805221558,2.5,-4.81,2.18,5.84
11.37912368774414,-4.57,-4.75,2.99,7.23
11.380278825759888,-6.81,-6.7,3.38,10.13
11.387570858001709,-8.18,-8.77,2.21,12.19
11.398127794265747,-9.25,-9.08,-0.04,12.96
11.407805919647217,-9.58,-6.56,-1.47,11.7
11.418015003204346,-7.31,-4.65,-1.44,8.78
11.4285569190979,-5.07,-3.92,-0.8,6.45
11.439533710479736,-3.74,-3.54,-0.35,5.16
11.449268817901611,-2.9,-3.49,-0.02,4.53
11.481671810150146,-2.81,-3.54,-0.13,4.52
11.483245849609375,-3.01,-3.53,-0.4,4.65
11.484381675720215,-3.23,-3.25,-0.45,4.6
11.50542688369751,-3.44,-2.61,-0.35,4.33
11.506612777709961,-3.68,-1.62,-0.29,4.03
11.519112825393677,-3.62,-0.52,0.11,3.65
11.520878791809082,-3.01,0.38,0.95,3.17
11.53435468673706,-1.86,0.95,1.42,2.52
11.538959980010986,-0.59,1.38,1.01,1.8
11.551805973052979,0.64,2.13,0.02,2.22
11.578352928161621,1.85,3.27,-1.14,3.92
11.579967975616455,3.05,4.27,-1.94,5.59
11.581164836883545,4.0,5.32,-2.01,6.95
11.588770866394043,4.59,5.74,-1.96,7.6
11.59911298751831,4.68,6.07,-1.43,7.79
11.608800888061523,4.52,7.27,-0.87,8.6
11.619197845458984,4.41,7.84,-0.53,9.01
11.629664897918701,4.73,8.43,0.14,9.66
11.639721870422363,5.78,8.5,0.71,10.3
11.650138854980469,7.64,8.1,1.2,11.19
11.684991836547852,9.28,7.36,1.42,11.92
11.686357021331787,9.54,5.71,1.13,11.17
11.687490940093994,9.31,4.07,0.86,10.19
11.705765724182129,10.49,3.42,-0.19,11.03
11.706925868988037,12.39,2.72,-0.35,12.68
11.719139814376831,12.23,3.02,0.26,12.6
11.720906734466553,10.48,2.94,-0.57,10.89
11.734635829925537,10.91,2.15,-2.23,11.34
11.740132808685303,11.51,1.13,-3.41,12.05
11.751840829849243,11.44,2.07,-8.05,14.14
11.785143852233887,7.16,3.13,-12.81,15.0
11.786759853363037,-3.37,6.95,-7.76,10.94
11.78790283203125,-9.88,9.9,3.02,14.3
11.805684804916382,-8.9,8.57,4.16,13.03
11.806814670562744,-0.7,6.73,2.18,7.1
11.81906270980835,5.74,6.45,6.35,10.71
11.820850849151611,9.0,2.05,2.73,9.62
11.834015846252441,12.53,-2.34,-2.72,13.03
11.840624809265137,8.2,-4.29,2.06,9.48
11.852575778961182,1.15,-2.94,3.38,4.62
11.881694793701172,-1.71,-0.73,2.59,3.18
11.883294820785522,-2.16,0.64,-1.65,2.79
11.884456872940063,0.68,1.61,-4.81,5.11
11.905622959136963,4.12,1.75,-4.11,6.07
11.90646481513977,5.95,0.83,-2.33,6.44
11.91884183883667,5.55,-0.63,-0.4,5.59
11.92085599899292,3.39,-1.29,0.95,3.74
11.93458080291748,0.96,-1.16,1.87,2.4
11.941457748413086,-0.96,-0.42,1.95,2.21
11.951785802841187,-1.69,0.36,1.52,2.3
11.987156867980957,-1.2,0.65,0.7,1.53
11.988741874694824,-0.23,0.49,0.07,0.54
11.989893913269043,0.59,0.05,-0.29,0.65
12.00576400756836,1.03,-0.14,-0.35,1.09
12.006651878356934,0.85,-0.16,0.14,0.87
12.019071817398071,0.05,-0.09,0.68,0.68
12.021702766418457,-0.94,0.01,1.05,1.4
12.0345778465271,-1.56,0.02,1.07,1.89
12.041928768157959,-1.58,0.0,0.76,1.75
12.052227973937988,-1.16,0.11,0.44,1.24
12.087486743927002,-0.81,0.17,0.23,0.85
12.088950872421265,-0.81,0.01,0.16,0.82
12.090001821517944,-1.13,-0.28,0.23,1.18
12.105799674987793,-1.31,-0.3,0.25,1.36
12.106627941131592,-0.77,-0.5,0.46,1.02
12.118868827819824,-0.46,-0.72,0.43,0.95
12.12228775024414,-0.32,-0.32,0.3,0.54
12.1348876953125,-0.45,-0.09,0.26,0.52
12.142585754394531,-0.62,-0.05,0.24,0.66
12.152925968170166,-0.71,0.19,-0.01,0.73
12.186054706573486,-0.93,0.49,-0.25,1.08
12.187640905380249,-0.87,0.78,-0.57,1.3
12.188785791397095,-0.68,0.95,-0.7,1.36
12.206195831298828,-0.33,0.73,-0.55,0.97
12.20737886428833,-0.16,0.44,-0.15,0.49
12.219834804534912,-0.41,0.43,0.22,0.63
12.222614765167236,-0.85,0.57,0.46,1.12
12.235099792480469,-1.26,0.86,0.63,1.65
12.243122816085815,-1.57,1.0,0.89,2.06
12.253521919250488,-1.62,1.14,1.29,2.36
12.28710389137268,-1.83,1.21,1.33,2.56
12.28861689567566,-1.59,1.92,-0.07,2.49
12.289849758148193,-1.69,2.36,-0.15,2.9
12.305770874023438,-2.05,2.69,-0.61,3.43
12.307026863098145,-2.49,2.76,-0.45,3.74
12.31882381439209,-3.13,3.04,-0.66,4.41
12.323318004608154,-3.73,3.5,-0.31,5.12
12.334621906280518,-3.63,3.91,-0.02,5.33
12.343953847885132,-4.83,4.57,0.03,6.64
12.354220867156982,-6.76,5.39,0.04,8.64
12.38684368133545,-6.15,6.36,-0.06,8.84
12.388183832168579,-6.93,7.17,-0.16,9.97
12.389339923858643,-8.64,7.53,-0.51,11.47
12.40636682510376,-10.49,8.19,-0.87,13.33
12.407598972320557,-13.35,9.22,-1.48,16.29
12.420125007629395,-12.33,8.6,-2.31,15.2
12.423895835876465,-13.11,7.52,-2.23,15.27
12.435805797576904,-14.22,7.19,-0.53,15.94
12.444418907165527,-11.52,7.49,1.68,13.84
12.455341815948486,-5.64,9.68,3.75,11.81
12.488639831542969,2.05,11.15,3.07,11.74
12.490175724029541,5.9,8.36,4.36,11.12
12.49133586883545,2.27,4.24,5.67,7.43
12.505143880844116,-4.31,1.96,4.5,6.53
12.506312847137451,-9.36,-0.05,3.88,10.13
12.519773960113525,-11.53,-2.09,3.8,12.31
12.524526834487915,-11.25,-3.43,5.31,12.9
12.534766674041748,-6.27,-2.16,7.12,9.73
12.545234680175781,0.11,-1.29,1.67,2.11
12.555298805236816,7.75,-3.23,-2.82,8.85
12.588006019592285,8.6,-4.94,0.53,9.93
12.58955979347229,-0.98,-3.71,2.26,4.45
12.590693950653076,-6.66,-4.71,2.6,8.56
12.60734486579895,-8.73,-7.29,2.48,11.64
12.608582019805908,-10.56,-8.44,1.26,13.57
12.620657920837402,-11.69,-6.82,-0.1,13.53
12.625048875808716,-9.54,-4.68,-0.51,10.63
12.63542890548706,-5.36,-4.03,0.04,6.7
12.645939826965332,-3.9,-3.6,0.69,5.35
12.656070709228516,-3.88,-3.6,1.37,5.46
12.690950870513916,-4.43,-3.81,1.76,6.1
12.69250202178955,-5.32,-3.44,1.71,6.56
12.693647861480713,-5.68,-2.6,1.4,6.4
12.7047758102417,-5.03,-1.53,0.82,5.32
12.705968856811523,-3.58,-0.32,0.28,3.6
12.719003677368164,-1.81,0.87,-0.35,2.03
12.725688934326172,-0.41,1.59,-0.88,1.86
12.736040830612183,0.59,2.03,-1.27,2.46
12.746687889099121,1.4,2.53,-1.57,3.29
12.756492853164673,2.27,3.42,-2.25,4.68
12.796509742736816,3.43,4.44,-3.16,6.43
12.79815673828125,4.53,5.17,-3.61,7.76
12.799278736114502,5.07,5.4,-3.29,8.1
12.803285837173462,5.12,5.74,-2.91,8.22
12.819418907165527,5.0,6.39,-2.61,8.52
12.821009874343872,5.1,7.4,-1.95,9.19
12.834887981414795,5.5,7.98,-0.86,9.72
12.836630821228027,6.45,7.92,-0.18,10.21
12.851624965667725,7.29,7.29,-0.48,10.32
12.8574059009552,8.15,6.92,-1.82,10.84
12.896974802017212,9.66,6.67,-2.06,11.91
12.898386001586914,11.51,5.05,0.15,12.57
12.89953088760376,12.38,2.94,0.68,12.74
12.90315294265747,11.88,1.92,-0.86,12.06
12.919586896896362,9.72,2.93,-0.62,10.17
12.92137885093689,6.39,3.47,1.39,7.4
12.93477487564087,8.45,1.69,0.95,8.66
12.936921834945679,10.78,1.76,1.37,11.0
12.95167875289917,13.2,2.06,-0.84,13.38
12.95773696899414,13.54,2.35,-5.79,14.91
12.991946697235107,6.04,2.87,-9.07,11.26
12.99314284324646,-5.99,4.97,-1.93,8.01
12.994296789169312,-11.04,9.35,3.03,14.78
13.00343370437622,-6.23,10.56,1.63,12.36
13.007390022277832,3.25,6.75,4.84,8.91
13.019294738769531,6.24,3.48,6.38,9.57
13.027150869369507,8.8,0.33,-2.61,9.18
13.03752088546753,8.26,-1.15,-3.77,9.15
13.048354864120483,1.35,-2.96,4.72,5.73
13.058229923248291,-1.65,-3.16,5.85,6.85
13.092978954315186,-0.46,-1.63,-1.65,2.36
13.094518899917603,2.51,0.24,-5.27,5.84
13.095647811889648,5.58,1.02,-2.66,6.26
13.103530883789062,6.53,1.17,-1.94,6.91
13.107654809951782,4.74,0.58,-1.65,5.05
13.119290828704834,2.14,-0.45,-0.18,2.19
13.128229856491089,0.17,-0.69,1.26,1.44
13.138123989105225,-0.86,-0.42,2.01,2.22
13.148926734924316,-0.9,-0.08,1.98,2.17
13.15889596939087,-0.3,0.27,1.08,1.15
13.192065715789795,0.48,0.39,0.32,0.69
13.193630695343018,0.9,0.22,-0.17,0.94
13.194763898849487,0.79,0.15,-0.19,0.82
13.203557014465332,0.32,0.24,0.05,0.4
13.20831298828125,-0.26,0.35,0.36,0.56
13.219255924224854,-0.72,0.29,0.65,1.01
13.228689670562744,-0.9,0.1,0.74,1.16
13.239023685455322,-0.71,-0.01,0.73,1.01
13.249538898468018,-0.46,0.03,0.68,0.82
13.25927186012268,-0.46,0.06,0.5,0.68
13.295811891555786,-0.48,0.09,0.23,0.53
13.297421932220459,-0.54,0.0,0.21,0.57
13.298666000366211,-0.79,-0.06,0.14,0.8
13.303668975830078,-0.66,0.07,0.04,0.66
13.308945894241333,-0.28,-0.1,0.0,0.29
13.31934380531311,-0.34,-0.16,-0.12,0.39
13.329524993896484,-0.4,-0.02,0.06,0.4
13.339319705963135,-0.36,0.06,0.12,0.38
13.350043773651123,-0.14,0.24,0.17,0.32
13.360200881958008,-0.05,0.5,0.04,0.5
13.395258903503418,-0.17,0.74,-0.04,0.76
13.39683985710144,-0.48,0.83,-0.09,0.96
13.39798378944397,-0.87,0.94,-0.34,1.32
13.403828859329224,-1.08,0.96,-0.35,1.48
13.409512996673584,-1.24,0.78,-0.48,1.54
13.420121669769287,-1.31,0.77,-0.56,1.61
13.43048095703125,-1.39,0.85,-0.29,1.65
13.439970016479492,-1.58,0.95,0.03,1.84
13.450759887695312,-1.93,1.28,0.16,2.32
13.460870742797852,-2.35,1.73,0.5,2.96
13.493927955627441,-2.69,2.05,0.74,3.46
13.495514869689941,-2.86,2.28,0.71,3.72
13.496659755706787,-2.79,2.29,0.62,3.66
13.503848791122437,-2.76,2.28,0.48,3.61
13.510082721710205,-3.0,2.36,0.29,3.82
13.520262718200684,-3.42,2.78,0.23,4.41
13.530942916870117,-4.19,3.41,0.33,5.41
13.541047811508179,-5.25,3.94,0.24,6.56
13.551220893859863,-6.1,4.69,-0.29,7.7
13.561511993408203,-6.81,5.73,-0.86,8.94
13.596625804901123,-7.95,6.82,-1.56,10.59
13.598240852355957,-10.16,7.87,-2.51,13.09
13.59939980506897,-10.4,7.95,-3.45,13.53
13.604012966156006,-13.04,8.47,-3.92,16.03
13.619287014007568,-14.8,9.02,-3.02,17.59
13.620951890945435,-15.52,9.16,-1.09,18.05
13.634768009185791,-12.72,9.57,1.53,15.99
13.64148473739624,-5.99,11.37,3.61,13.34
13.652616024017334,2.66,13.52,2.73,14.04
13.66190481185913,6.97,11.08,5.22,14.09
13.695279836654663,3.44,5.9,7.98,10.5
13.696631908416748,-3.18,2.49,6.75,7.86
13.697794914245605,-8.12,-0.14,5.37,9.73
13.703926801681519,-10.11,-2.2,4.34,11.21
13.711649894714355,-9.44,-3.42,4.61,11.04
13.721396923065186,-6.41,-1.42,5.94,8.85
13.732289791107178,-1.66,-0.11,2.44,2.95
13.742369890213013,4.88,-2.74,-2.38,6.08
13.752278804779053,7.24,-4.81,0.46,8.7
13.76278281211853,0.34,-4.39,2.71,5.17
13.79793381690979,-5.78,-4.44,3.32,8.0
13.799503803253174,-7.47,-6.6,3.86,10.68
13.800657749176025,-8.3,-8.57,2.5,12.18
13.804518699645996,-9.12,-8.36,-0.03,12.37
13.812248706817627,-8.65,-5.88,-1.41,10.55
13.822295904159546,-6.25,-4.29,-1.27,7.68
13.832530975341797,-4.71,-3.65,-0.77,6.0
13.842552900314331,-3.73,-3.31,-0.37,5.0
13.852968692779541,-3.19,-3.22,0.06,4.53
13.863214015960693,-3.17,-3.26,0.11,4.54
13.901366710662842,-3.34,-3.25,0.06,4.66
13.90291690826416,-3.54,-2.95,0.18,4.61
13.904068946838379,-3.59,-2.34,0.19,4.28
13.922448873519897,-3.64,-1.44,0.15,3.91
13.923690795898438,-3.4,-0.44,0.46,3.45
13.935860872268677,-2.66,0.41,1.18,2.93
13.93704891204834,-1.48,0.99,1.77,2.51
13.952781677246094,-0.28,1.61,1.55,2.25
13.9546799659729,0.78,2.64,0.68,2.83
13.970174789428711,1.8,3.93,-0.3,4.33
13.990767002105713,2.79,5.06,-0.76,5.82
13.992344856262207,3.68,6.3,-0.78,7.33
13.993528842926025,4.62,7.12,-0.9,8.53
14.004264831542969,5.63,7.9,-0.53,9.71
14.013415813446045,6.39,8.09,-0.03,10.3
14.023298740386963,6.76,8.3,0.69,10.72
14.033657789230347,6.74,8.44,0.34,10.8
14.043798923492432,6.83,7.73,0.08,10.31
14.05408787727356,7.71,6.67,0.79,10.22
14.064454793930054,8.75,5.97,1.88,10.75
14.098297834396362,9.06,4.55,1.4,10.23
14.099792003631592,9.47,3.71,-0.18,10.17
14.100947856903076,11.07,2.98,-2.15,11.66
14.104375839233398,12.83,1.55,-0.8,12.94
14.114305019378662,12.46,0.68,0.62,12.49
14.12411880493164,11.3,0.45,-1.24,11.37
14.134296894073486,11.2,0.9,-3.71,11.83
14.144268989562988,10.57,1.79,-3.93,11.41
14.155033826828003,10.66,1.39,-6.03,12.32
14.165011882781982,6.45,1.16,-11.31,13.07
14.199410915374756,-4.2,4.21,-13.59,14.83
14.201052904129028,-13.64,12.14,-5.47,19.06
14.202219009399414,-11.96,14.0,0.62,18.42
14.204762935638428,1.05,4.77,4.41,6.58
14.214670896530151,5.34,3.45,4.37,7.71
14.22477388381958,6.99,8.16,5.89,12.25
14.234685897827148,11.79,2.59,2.68,12.36
14.245097875595093,14.64,-3.35,-1.32,15.07
14.255391836166382,5.25,-5.49,5.1,9.14
14.2652587890625,-1.8,-4.07,6.8,8.12
14.302446842193604,-3.39,-0.72,4.32,5.53
14.30404281616211,-3.7,1.38,-3.7,5.41
14.305196762084961,-0.79,2.5,-7.53,7.97
14.323400020599365,4.57,1.83,-4.53,6.68
14.324556827545166,7.82,0.19,-1.7,8.0
14.337814807891846,7.52,-1.26,-0.97,7.68
14.33955192565918,3.91,-1.5,-0.03,4.18
14.351856708526611,-0.1,-0.84,0.93,1.25
14.355455875396729,-2.41,-0.03,1.51,2.84
14.368934869766235,-2.87,0.47,1.77,3.4
14.39823579788208,-2.07,0.69,1.31,2.54
14.399818897247314,-0.43,0.48,0.08,0.64
14.400974750518799,1.16,-0.06,-0.63,1.32
14.405564785003662,2.08,-0.37,-0.55,2.18
14.415778875350952,2.02,-0.29,-0.02,2.04
14.425708770751953,0.84,-0.14,0.58,1.03
14.435894012451172,-0.72,0.04,0.85,1.11
14.446167945861816,-1.72,0.17,0.97,1.98
14.45656681060791,-1.86,0.12,0.65,1.97
14.467190742492676,-1.29,0.17,0.25,1.32
14.501795768737793,-0.53,0.21,0.11,0.58
14.503387928009033,-0.22,0.14,-0.06,0.26
14.504490852355957,-0.44,0.26,0.27,0.57
14.523453712463379,-0.59,0.27,0.56,0.85
14.524603843688965,-0.81,0.08,0.37,0.89
14.536592960357666,-0.87,0.02,0.22,0.89
14.538208961486816,-0.73,0.11,0.35,0.81
14.551865816116333,-0.55,0.07,0.33,0.64
14.557232856750488,-0.23,0.12,0.46,0.52
14.569569826126099,-0.14,0.44,0.6,0.75
14.60099983215332,-0.3,0.67,0.45,0.86
14.602563858032227,-0.46,0.83,0.22,0.97
14.603771686553955,-0.53,0.85,0.11,1.0
14.623851776123047,-0.68,0.79,0.28,1.07
14.624755859375,-0.87,0.59,0.55,1.18
14.637532711029053,-0.97,0.71,-0.25,1.22
14.63933801651001,-1.23,1.02,-0.28,1.62
14.652613878250122,-1.85,1.15,-0.34,2.2
14.657665729522705,-2.28,1.38,-0.27,2.67
14.670068740844727,-2.49,1.77,-0.06,3.05
14.702361822128296,-2.75,2.09,0.54,3.49
14.703950881958008,-3.01,2.31,0.9,3.89
14.705082893371582,-3.16,2.6,0.8,4.16
14.723959922790527,-3.23,2.87,0.63,4.36
14.725124835968018,-3.36,3.21,0.45,4.66
14.736798763275146,-3.78,3.66,0.43,5.27
14.738536834716797,-4.52,4.02,0.45,6.06
14.752700805664062,-5.36,4.2,0.32,6.81
14.758218765258789,-5.96,4.59,-0.13,7.52
14.769808769226074,-6.29,5.32,-0.42,8.24
14.80423378944397,-6.93,6.34,-0.31,9.39
14.805758953094482,-9.12,7.7,-0.31,11.93
14.806803703308105,-8.89,8.11,-0.42,12.04
14.82367992401123,-12.11,8.9,-1.33,15.08
14.824450969696045,-15.01,9.61,-1.48,17.88
14.836537837982178,-15.63,9.52,-0.25,18.3
14.838545799255371,-13.98,9.83,1.72,17.17
14.852210998535156,-7.53,11.09,4.63,14.18
14.858459949493408,0.74,13.53,4.95,14.42
14.870147705078125,7.31,10.71,4.93,13.87
14.90228796005249,7.25,5.17,6.04,10.75
14.903814792633057,0.85,1.99,5.57,5.97
14.904943943023682,-6.0,0.25,3.94,7.18
14.923916816711426,-10.39,-1.2,3.65,11.07
14.925086975097656,-11.35,-2.2,5.18,12.66
14.938109874725342,-7.28,-1.93,6.39,9.87
14.93986177444458,-2.0,-1.58,2.5,3.57
14.952670812606812,3.62,-2.91,-0.01,4.64
14.959492683410645,5.4,-5.2,1.12,7.57
14.970457792282104,-1.1,-4.7,2.16,5.28
15.003750801086426,-6.66,-4.72,2.12,8.43
15.005309820175171,-8.48,-6.32,1.46,10.67
15.006451845169067,-9.54,-7.11,0.25,11.9
15.023988723754883,-9.66,-5.99,-0.68,11.38
15.02516794204712,-6.65,-4.63,-0.78,8.14
15.037162780761719,-4.18,-3.77,-0.76,5.68
15.039556980133057,-3.24,-3.33,-0.72,4.7
15.052190780639648,-3.06,-3.4,-0.32,4.58
15.059991836547852,-3.37,-3.61,0.13,4.94
15.070534706115723,-3.65,-3.69,0.39,5.2
15.10538387298584,-3.56,-3.55,0.33,5.03
15.106959819793701,-3.49,-2.95,0.13,4.57
15.108104705810547,-3.61,-2.13,0.0,4.19
15.124236822128296,-3.68,-1.24,0.34,3.89
15.125378847122192,-3.5,-0.48,1.37,3.78
15.137969970703125,-2.99,0.28,2.49,3.9
15.140207767486572,-2.12,1.1,2.87,3.73
15.153061866760254,-0.83,1.91,2.28,3.08
15.160661697387695,0.39,2.93,1.15,3.17
15.171003818511963,1.57,4.19,-0.05,4.47
15.204992771148682,2.82,5.32,-0.97,6.09
15.206561803817749,3.84,6.47,-0.94,7.58
15.207734823226929,4.41,6.78,-0.69,8.11
15.223914861679077,4.48,6.57,-0.18,7.95
15.224746704101562,4.37,7.17,0.34,8.4
15.238204002380371,4.48,7.53,0.18,8.76
15.240761756896973,5.3,7.81,0.16,9.43
15.252656936645508,6.57,7.03,0.3,9.62
15.261359691619873,8.18,6.01,0.11,10.15
15.271675825119019,9.53,5.5,-0.64,11.02
15.308972835540771,10.69,4.59,-1.44,11.72
15.310601711273193,12.02,3.31,-1.29,12.53
15.311736822128296,13.06,1.98,-1.33,13.27
15.321274757385254,13.01,1.38,-2.0,13.23
15.322475910186768,11.73,1.55,-1.67,11.94
15.336926937103271,10.43,1.83,-1.44,10.68
15.341168880462646,9.59,2.51,-1.96,10.1
15.352374792098999,11.13,1.87,-3.97,11.96
15.361551761627197,13.25,2.33,-6.09,14.76
15.372106790542603,9.71,2.21,-13.12,16.47
15.404223918914795,-3.02,5.57,-12.93,14.39
15.405863761901855,-13.38,13.15,-0.24,18.76
15.40705680847168,-11.86,14.05,1.8,18.47
15.424338817596436,-1.53,8.11,3.01,8.78
15.425516843795776,4.46,8.26,12.34,15.5
15.437780857086182,8.27,2.48,5.45,10.21
15.44162893295288,14.02,-1.88,-5.84,15.3
15.452554702758789,11.32,-5.81,2.1,12.89
15.462370872497559,2.39,-4.87,5.99,8.08
15.472631931304932,-0.35,-2.46,5.12,5.69
15.509955883026123,-1.07,0.12,-3.86,4.0
15.51154899597168,1.01,2.32,-8.53,8.89
15.512754917144775,4.94,2.48,-3.99,6.81
15.522531986236572,7.27,1.19,-1.22,7.46
15.523688793182373,6.64,-0.38,-1.76,6.87
15.537669897079468,3.76,-1.48,-0.39,4.05
15.542527675628662,0.32,-1.37,1.97,2.42
15.552876949310303,-2.05,-0.41,2.51,3.26
15.563117980957031,-2.4,0.25,2.3,3.33
15.573249816894531,-1.18,0.37,1.98,2.33
15.608163833618164,0.03,0.34,0.57,0.66
15.60974383354187,0.77,0.07,-0.56,0.95
15.610869884490967,1.2,-0.2,-0.76,1.43
15.624167919158936,1.08,-0.13,-0.46,1.18
15.625305891036987,0.46,0.01,0.33,0.56
15.63657283782959,-0.48,-0.11,1.13,1.23
15.643565893173218,-1.45,-0.26,1.51,2.1
15.653228759765625,-2.01,-0.27,1.35,2.43
15.66392183303833,-1.96,-0.14,0.76,2.1
15.673845767974854,-1.41,0.15,0.0,1.41
15.709558010101318,-0.89,0.15,-0.29,0.94
15.711108684539795,-0.9,0.09,-0.37,0.97
15.712247848510742,-0.94,0.06,-0.26,0.97
15.723261833190918,-1.06,-0.07,0.13,1.07
15.724459886550903,-1.2,0.02,0.56,1.32
15.737626791000366,-1.02,0.28,0.77,1.3
15.744126796722412,-0.63,0.54,0.58,1.01
15.75389289855957,-0.24,0.6,0.22,0.68
15.764488697052002,-0.06,0.41,-0.12,0.43
15.774422883987427,-0.06,0.3,-0.23,0.38
15.812934875488281,-0.19,0.38,-0.2,0.46
15.814308881759644,-0.32,0.5,0.02,0.59
15.81537389755249,-0.48,0.67,0.4,0.91
15.821387767791748,-0.88,0.71,0.66,1.3
15.824033737182617,-1.35,0.68,0.76,1.69
15.836984872817993,-1.73,0.73,0.95,2.1
15.844693899154663,-2.1,0.82,1.31,2.6
15.85441780090332,-2.09,0.87,0.42,2.3
15.865144729614258,-1.7,1.57,-0.25,2.32
15.875260829925537,-1.96,1.95,-0.16,2.76
15.911171913146973,-2.2,2.35,-0.33,3.23
15.912742853164673,-2.26,2.52,-0.2,3.39
15.913894891738892,-2.44,2.52,-0.3,3.52
15.921438694000244,-2.57,2.54,-0.3,3.62
15.924648761749268,-2.84,2.84,-0.12,4.01
15.937176704406738,-3.59,3.31,0.15,4.88
15.945304870605469,-4.59,3.79,0.11,5.95
15.955390930175781,-5.28,4.22,-0.23,6.76
15.965810775756836,-4.04,4.67,-0.79,6.22
15.97605276107788,-6.38,5.47,-1.6,8.55
16.00796389579773,-8.94,6.64,-1.76,11.27
16.009568691253662,-10.06,7.51,-1.89,12.69
16.010756969451904,-12.36,8.36,-2.52,15.13
16.02384090423584,-13.16,8.82,-2.52,16.04
16.02528476715088,-10.02,8.35,-1.03,13.08
16.038635730743408,-12.56,8.92,-0.19,15.4
16.045653820037842,-14.39,9.55,2.44,17.44
16.055967807769775,-10.92,10.43,4.34,15.71
16.066574811935425,-1.49,13.0,3.69,13.59
16.07657480239868,5.33,11.63,4.12,13.44
16.10926580429077,5.32,5.94,6.51,10.29
16.11083173751831,-0.56,1.75,6.45,6.7
16.111982822418213,-6.88,-0.65,4.7,8.35
16.122243881225586,-10.46,-2.28,3.55,11.27
16.125808715820312,-11.28,-3.57,3.68,12.39
16.138768672943115,-8.07,-3.51,5.64,10.45
16.14618968963623,-2.34,-1.09,3.88,4.66
16.156988859176636,6.07,-1.48,-2.85,6.86
16.167022705078125,11.85,-4.43,-0.83,12.67
16.177387714385986,5.02,-5.3,2.75,7.8
16.213100910186768,-4.59,-5.21,2.67,7.43
16.214703798294067,-8.95,-7.36,3.19,12.01
16.215885877609253,-12.34,-8.55,3.04,15.31
16.22179889678955,-13.77,-7.07,1.2,15.52
16.226699829101562,-12.29,-4.02,-0.07,12.93
16.23696780204773,-7.46,-3.0,-0.32,8.04
16.247257709503174,-5.06,-2.47,-0.4,5.64
16.256876945495605,-3.95,-2.38,-0.41,4.62
16.268249988555908,-3.03,-2.81,-0.2,4.13
16.277658939361572,-3.15,-3.01,-0.18,4.36
16.315773010253906,-3.55,-2.78,-0.5,4.53
16.31736183166504,-3.31,-1.98,-0.87,3.95
16.318503856658936,-2.35,-1.06,-0.8,2.69
16.322664737701416,-1.24,-0.28,-0.39,1.32
16.32709288597107,-0.3,0.39,-0.25,0.55
16.337347984313965,0.16,1.0,-0.28,1.05
16.347697734832764,0.3,1.8,-0.29,1.84
16.35775089263916,0.84,2.81,-0.41,2.96
16.368353843688965,1.76,3.81,-0.63,4.24
16.378004789352417,2.79,4.63,-1.12,5.52
16.409639835357666,3.82,5.36,-1.37,6.72
16.411229848861694,4.61,5.69,-1.55,7.48
16.412375926971436,4.88,5.34,-1.45,7.37
16.421945810317993,4.86,5.28,-1.0,7.24
16.427613735198975,5.33,5.75,-0.32,7.84
16.438008785247803,5.41,5.92,0.01,8.01
16.448190689086914,5.78,6.35,0.05,8.58
16.458251953125,7.02,6.23,-0.34,9.39
16.469148874282837,9.16,5.78,-0.77,10.85
16.479020833969116,10.59,5.15,-0.37,11.78
16.51239776611328,10.58,4.43,0.2,11.47
16.513980865478516,9.6,3.85,0.79,10.37
16.515121936798096,8.73,3.09,1.16,9.33
16.523698806762695,8.31,2.87,0.8,8.82
16.528260707855225,8.4,2.93,1.08,8.96
16.538399696350098,8.26,3.26,0.62,8.9
16.54870080947876,8.56,2.44,-0.97,8.95
16.55940580368042,10.65,1.44,-3.97,11.45
16.569350719451904,11.8,2.14,-6.68,13.72
16.579572677612305,9.15,2.41,-12.8,15.91
16.614678859710693,-1.04,6.12,-11.1,12.71
16.616273880004883,-10.28,11.26,0.59,15.25
16.61746597290039,-5.95,11.15,4.33,13.35
16.62216567993164,3.6,5.36,2.88,7.06
16.63782286643982,6.24,6.61,4.21,10.01
16.639054775238037,6.78,4.64,5.36,9.8
16.65299701690674,9.82,-0.84,-0.41,9.86
16.65931272506714,7.17,-3.07,1.89,8.02
16.670612812042236,-0.77,-4.35,7.08,8.34
16.680368900299072,-4.01,-2.64,5.31,7.15
16.714221954345703,-3.02,0.1,-1.97,3.6
16.715556859970093,0.84,1.52,-6.05,6.29
16.716744899749756,5.58,1.63,-4.86,7.57
16.722211837768555,8.2,1.09,-3.31,8.9
16.729723930358887,6.94,0.34,-2.33,7.32
16.73955774307251,3.28,-0.6,-0.66,3.39
16.750024795532227,0.19,-1.12,1.28,1.71
16.760363817214966,-1.58,-0.81,2.24,2.85
16.770416736602783,-1.7,-0.21,2.52,3.04
16.78119683265686,-0.83,0.17,1.88,2.06
16.815168857574463,0.27,0.34,0.75,0.86
16.81678581237793,1.09,0.08,-0.14,1.1
16.817935943603516,1.35,-0.23,-0.55,1.47
16.82201385498047,1.06,-0.22,-0.36,1.14
16.837344884872437,0.25,-0.01,0.14,0.28
16.840147018432617,-0.66,0.11,0.7,0.96
16.853018760681152,-1.27,-0.02,1.19,1.74
16.861135959625244,-1.45,-0.09,1.16,1.85
16.871016025543213,-1.2,0.04,0.85,1.47
16.881633758544922,-0.93,0.16,0.53,1.08
16.914734840393066,-0.87,0.22,0.28,0.94
16.91611099243164,-1.21,-0.03,0.33,1.25
16.91725778579712,-1.37,0.1,0.24,1.39
16.92221188545227,-0.54,0.06,0.33,0.63
16.93146800994873,0.14,-0.02,0.62,0.63
16.941349983215332,-0.3,0.3,0.64,0.76
16.951222896575928,-0.84,0.47,0.37,1.03
16.96167778968811,-0.99,0.25,0.21,1.04
16.971645832061768,-0.86,0.2,0.25,0.91
16.981992721557617,-0.66,0.29,0.17,0.74
17.015217781066895,-0.61,0.4,0.23,0.76
17.016822814941406,-0.82,0.5,0.44,1.05
17.01798391342163,-1.24,0.57,0.56,1.47
17.022470951080322,-1.64,0.62,0.52,1.82
17.037580013275146,-1.79,0.56,0.53,1.94
17.04160976409912,-1.72,0.58,0.53,1.89
17.053339958190918,-1.5,0.71,0.17,1.66
17.062038898468018,-1.14,1.11,-0.17,1.6
17.072367906570435,-1.1,1.32,-0.37,1.75
17.082621812820435,-1.31,1.72,-0.81,2.3
17.11649990081787,-1.48,1.97,-0.63,2.54
17.117999792099,-1.67,1.86,-0.43,2.53
17.11919593811035,-1.84,1.84,-0.11,2.6
17.122591018676758,-2.13,2.04,0.37,2.97
17.13207197189331,-2.67,2.55,0.74,3.76
17.142451763153076,-3.31,3.14,0.97,4.66
17.152463912963867,-3.99,3.73,0.76,5.51
17.16289186477661,-4.56,4.09,0.34,6.13
17.172820806503296,-4.95,4.26,-0.74,6.57
17.183189868927002,-5.31,4.72,-1.74,7.31
17.218079805374146,-5.77,5.81,-2.03,8.43
17.21969699859619,-6.57,6.48,-1.57,9.36
17.220863819122314,-8.59,6.4,-0.89,10.74
17.241952896118164,-9.41,6.85,-0.56,11.65
17.243781805038452,-10.59,7.51,-0.29,12.98
17.254848957061768,-13.34,7.93,0.15,15.51
17.25663185119629,-13.69,7.73,1.66,15.8
17.27023482322693,-9.85,7.96,3.34,13.09
17.27297878265381,-4.35,9.29,4.23,11.09
17.287261962890625,1.83,11.4,3.65,12.1
17.313145875930786,5.01,11.22,4.2,12.98
17.31470775604248,1.56,7.09,6.24,9.57
17.31585168838501,-4.45,3.5,5.62,7.97
17.323158740997314,-8.93,1.08,4.63,10.11
17.333335876464844,-10.93,-1.05,3.7,11.58
17.343498706817627,-10.98,-2.57,3.74,11.88
17.353899002075195,-8.64,-2.3,5.44,10.46
17.363651752471924,-4.54,-0.6,4.56,6.46
17.374085903167725,1.01,-1.51,-0.97,2.05
17.384634017944336,6.06,-3.61,-1.6,7.23
17.41659188270569,2.64,-3.78,0.8,4.67
17.418152809143066,-4.9,-2.83,1.71,5.91
17.41931390762329,-7.88,-4.45,2.45,9.37
17.423755884170532,-9.38,-6.44,2.48,11.64
17.433969974517822,-10.48,-6.59,1.35,12.45
17.44387984275818,-9.21,-4.79,0.32,10.38
17.45423698425293,-5.1,-3.46,0.15,6.16
17.464707851409912,-2.98,-2.77,0.11,4.07
17.474652767181396,-2.63,-2.54,0.18,3.66
17.485291957855225,-3.37,-2.54,0.32,4.23
17.519805908203125,-4.24,-2.59,0.64,5.0
17.521403789520264,-4.71,-2.51,0.99,5.42
17.522523880004883,-4.91,-2.09,1.09,5.44
17.543787002563477,-4.8,-1.45,0.91,5.09
17.545653820037842,-4.15,-0.71,1.03,4.33
17.55433702468872,-3.13,-0.03,1.62,3.52
17.556047916412354,-2.18,0.59,1.8,2.88
17.570148944854736,-1.43,1.01,1.33,2.19
17.57505488395691,-0.71,1.57,0.68,1.85
17.587507724761963,0.01,2.32,-0.06,2.32
17.615864753723145,0.98,3.12,-0.9,3.39
17.61744499206543,2.17,4.08,-1.77,4.94
17.61860990524292,3.43,4.83,-2.54,6.44
17.625231742858887,4.58,5.61,-2.72,7.73
17.638223886489868,5.46,6.1,-2.85,8.66
17.645548820495605,6.11,6.53,-2.38,9.25
17.656014919281006,6.57,6.9,-1.4,9.62
17.66613483428955,6.53,8.31,-1.66,10.69
17.676084995269775,6.93,9.36,-1.19,11.7
17.68636178970337,8.22,7.87,0.03,11.38
17.721920013427734,10.33,5.97,1.74,12.05
17.72330093383789,12.43,5.31,2.29,13.7
17.724438905715942,11.89,4.74,2.64,13.06
17.74256992340088,10.82,4.09,1.95,11.73
17.744394779205322,10.45,3.35,1.07,11.02
17.754692792892456,10.32,2.28,0.98,10.61
17.756544828414917,12.13,1.82,-1.05,12.31
17.770803928375244,13.52,1.75,-4.6,14.38
17.776405811309814,13.5,2.19,-11.18,17.66
17.788102865219116,10.63,4.94,-18.55,21.94
17.819551944732666,-2.38,11.56,-5.19,12.89
17.821133852005005,-8.18,13.97,8.34,18.21
17.822282791137695,0.11,13.38,4.42,14.09
17.842532873153687,8.66,7.56,6.02,12.97
17.844421863555908,12.36,-0.1,-1.34,12.43
17.856095790863037,10.07,-2.87,-6.36,12.25
17.85786771774292,1.56,-5.39,3.97,6.87
17.870888710021973,-2.62,-5.29,10.88,12.37
17.877017974853516,-3.02,-2.56,9.02,9.85
17.88882279396057,-3.29,0.46,1.0,3.46
17.92151689529419,-1.67,2.81,-6.07,6.89
17.923075675964355,2.79,2.66,-6.55,7.6
17.924214839935303,6.14,1.25,-4.76,7.86
17.941919803619385,7.4,-0.21,-3.23,8.07
17.942781925201416,6.4,-0.97,-1.5,6.64
17.95616388320923,3.75,-1.48,0.92,4.13
17.957942008972168,0.55,-1.3,2.07,2.5
17.97094988822937,-1.88,-0.31,2.38,3.04
17.977572917938232,-2.61,0.43,2.53,3.66
17.9879789352417,-2.39,0.7,1.64,2.98
18.02491784095764,-1.42,0.62,-0.04,1.54
18.02640390396118,0.6,0.2,-0.94,1.13
18.02756690979004,1.74,-0.18,-1.02,2.02
18.042203903198242,1.67,-0.14,-0.53,1.75
18.0433406829834,0.6,0.02,0.42,0.73
18.055263996124268,-0.69,0.09,1.26,1.43
18.057703018188477,-1.44,0.13,1.23,1.89
18.070891857147217,-1.39,0.07,0.99,1.7
18.0782208442688,-0.91,0.05,0.54,1.05
18.088453769683838,-0.44,0.09,0.07,0.45
18.123966693878174,-0.68,0.07,0.07,0.68
18.125292778015137,-0.31,0.33,0.07,0.45
18.126245975494385,0.2,0.09,0.17,0.27
18.14223289489746,-0.06,-0.07,0.47,0.47
18.14338493347168,-0.83,0.17,0.61,1.04
18.155592918395996,-1.12,0.37,0.7,1.37
18.15836191177368,-0.93,0.51,0.66,1.24
18.17126178741455,-0.83,0.74,0.83,1.38
18.17886185646057,-1.0,0.91,0.84,1.59
18.189096927642822,-1.2,0.88,0.67,1.63
18.22327470779419,-1.36,0.78,1.05,1.88
18.22488284111023,-1.52,0.72,0.8,1.86
18.22604489326477,-1.39,0.68,-0.53,1.63
18.242612838745117,-1.59,0.55,-1.2,2.06
18.243783950805664,-1.6,0.38,-1.11,1.98
18.256009817123413,-1.24,0.42,-0.89,1.58
18.258919715881348,-1.33,0.84,-0.16,1.58
18.271374702453613,-1.86,1.37,0.66,2.4
18.279704809188843,-2.1,1.84,1.5,3.16
18.28987693786621,-2.13,2.13,1.62,3.42
18.325352668762207,-2.1,2.31,1.2,3.34
18.32693099975586,-2.08,2.56,0.71,3.37
18.328083992004395,-2.27,2.91,0.16,3.69
18.342237949371338,-2.77,3.24,-0.39,4.28
18.34337568283081,-3.21,3.75,-0.99,5.03
18.356562852859497,-3.58,4.13,-1.18,5.59
18.359994888305664,-4.48,4.48,-1.39,6.48
18.374560832977295,-5.85,4.97,-1.36,7.79
18.380584716796875,-7.6,5.75,-1.26,9.61
18.390213012695312,-7.03,6.8,-1.3,9.86
18.424721717834473,-9.51,7.97,-2.26,12.61
18.42631483078003,-13.85,8.66,-3.12,16.62
18.427498817443848,-16.08,8.76,-3.29,18.6
18.429736852645874,-17.36,9.57,-2.46,19.97
18.440348863601685,-17.25,10.58,0.03,20.23
18.45008087158203,-10.68,11.09,3.45,15.77
18.460489749908447,-0.89,12.59,4.47,13.38
18.470967769622803,7.8,12.61,4.46,15.48
18.481165885925293,9.06,7.68,7.95,14.29
18.49089789390564,2.35,3.57,7.79,8.88
18.52334499359131,-5.32,0.88,5.67,7.82
18.52474284172058,-10.11,-1.35,4.47,11.13
18.525904893875122,-11.95,-3.09,4.58,13.16
18.54264497756958,-9.82,-3.28,6.49,12.21
18.54381489753723,-5.16,-0.85,6.51,8.35
18.55842685699463,0.72,-1.86,0.33,2.02
18.560588836669922,6.4,-4.53,-0.83,7.88
18.572028875350952,5.53,-5.97,2.89,8.63
18.581259727478027,-3.09,-5.27,3.84,7.21
18.591569900512695,-7.3,-6.4,4.32,10.62
18.625386714935303,-8.48,-8.84,3.66,12.78
18.626964807510376,-9.74,-9.52,1.0,13.65
18.628124713897705,-10.27,-6.98,-0.88,12.44
18.640995025634766,-7.54,-4.94,-1.0,9.06
18.642173767089844,-5.01,-4.54,0.13,6.76
18.655186891555786,-4.43,-4.16,0.9,6.14
18.661374807357788,-4.1,-3.84,1.1,5.72
18.67161989212036,-3.85,-3.54,1.05,5.33
18.6819908618927,-3.48,-3.08,0.66,4.69
18.692477703094482,-2.96,-2.27,0.04,3.73
18.729938983917236,-2.48,-1.24,-0.59,2.83
18.731523990631104,-1.9,-0.05,-1.02,2.15
18.732695817947388,-1.33,0.88,-0.75,1.76
18.73965287208557,-0.84,1.45,0.09,1.67
18.741798877716064,-0.37,1.64,0.84,1.87
18.75549602508545,0.0,1.88,0.63,1.98
18.761863708496094,0.27,2.84,-0.61,2.91
18.772543907165527,0.89,4.17,-1.88,4.65
18.78252077102661,1.92,5.21,-2.34,6.02
18.793115854263306,2.96,6.03,-2.37,7.12
18.829859733581543,3.61,6.94,-2.18,8.12
18.831429958343506,3.79,7.07,-2.05,8.27
18.832462787628174,3.79,8.22,-1.82,9.23
18.83953094482422,3.77,8.71,-1.72,9.64
18.842358827590942,3.81,8.11,-0.91,9.0
18.855698823928833,4.58,8.31,-0.77,9.51
18.86249089241028,6.88,8.71,-0.97,11.14
18.872989892959595,10.46,7.51,0.84,12.9
18.883187770843506,14.5,4.47,1.36,15.23
18.893764972686768,17.27,2.28,-1.39,17.47
18.92682695388794,16.0,1.48,-4.17,16.6
18.928415775299072,12.92,1.67,-1.52,13.11
18.92953395843506,8.75,2.17,0.39,9.02
18.932731866836548,6.85,1.87,0.07,7.1
18.94349479675293,8.6,1.17,-0.71,8.7
18.95280694961548,10.76,1.22,-0.97,10.87
18.963167905807495,13.05,0.59,-2.9,13.38
18.973389863967896,11.1,0.91,-9.0,14.31
18.983845710754395,-0.29,2.26,-7.98,8.29
18.993976831436157,-12.25,7.34,2.46,14.49
19.027267932891846,-15.33,14.6,3.88,21.52
19.028848886489868,-6.19,14.18,3.41,15.84
19.029996871948242,3.97,8.02,12.64,15.48
19.039885997772217,9.03,2.96,-0.6,9.52
19.043601989746094,14.59,0.12,-12.74,19.36
19.055699825286865,11.93,-5.51,1.39,13.21
19.063480854034424,3.3,-4.81,6.84,8.98
19.073954820632935,0.2,-3.71,7.68,8.53
19.08498787879944,-0.59,-1.18,-1.4,1.92
19.094934940338135,1.53,1.57,-5.95,6.34
19.126837730407715,4.22,2.71,-2.62,5.65
19.128381729125977,4.73,2.08,-0.34,5.17
19.12953472137451,3.25,0.38,-0.62,3.33
19.139925956726074,1.72,-1.07,0.39,2.06
19.14396572113037,0.71,-1.44,1.21,2.01
19.15613579750061,0.03,-0.72,1.02,1.24
19.164498805999756,-0.41,0.15,1.19,1.26
19.174410820007324,-0.61,0.51,1.57,1.75
19.18524980545044,-0.82,0.28,1.29,1.55
19.19511890411377,-0.81,-0.1,0.63,1.03
19.229387760162354,-0.46,-0.25,0.47,0.7
19.230961799621582,-0.31,-0.16,0.28,0.44
19.23214101791382,-0.45,-0.13,0.42,0.62
19.239937782287598,-0.87,-0.08,0.58,1.04
19.244584798812866,-1.33,0.08,0.52,1.43
19.255801677703857,-1.87,0.13,0.69,1.99
19.26497983932495,-2.43,0.15,0.68,2.52
19.275218963623047,-2.28,0.17,0.6,2.36
19.286374807357788,-2.06,0.04,0.37,2.09
19.295974731445312,-1.1,-0.06,0.38,1.16
19.32940101623535,-0.38,0.11,0.4,0.56
19.330963850021362,-0.02,0.19,0.44,0.47
19.332096815109253,0.18,0.24,0.41,0.5
19.340176820755005,0.29,0.44,0.12,0.54
19.345151901245117,0.11,0.43,0.1,0.45
19.356834888458252,-0.17,0.51,0.05,0.53
19.366074800491333,-0.48,0.66,0.05,0.81
19.375866889953613,-0.62,0.77,0.19,1.0
19.386358737945557,-0.63,0.84,0.17,1.06
19.39645290374756,-0.69,0.83,0.59,1.23
19.430459022521973,-0.86,0.54,0.4,1.09
19.432028770446777,-0.92,0.67,0.27,1.16
19.433177947998047,-1.36,0.75,0.05,1.55
19.435698986053467,-1.52,0.97,-0.15,1.8
19.446080684661865,-1.83,1.23,0.05,2.2
19.45618987083435,-2.32,1.58,0.12,2.8
19.46669888496399,-2.73,1.8,0.06,3.27
19.476171016693115,-2.85,1.91,-0.13,3.43
19.486769676208496,-2.7,1.91,-0.33,3.32
19.49713683128357,-2.59,1.99,-0.59,3.31
19.531279802322388,-2.79,2.51,-0.59,3.79
19.532760858535767,-3.45,3.03,-0.15,4.59
19.533954858779907,-4.25,3.42,0.14,5.45
19.54005789756775,-5.09,3.96,0.47,6.46
19.546546936035156,-6.13,4.41,0.6,7.57
19.55649185180664,-7.13,5.32,-0.03,8.89
19.567115783691406,-7.8,6.7,-0.34,10.28
19.577720880508423,-6.66,7.77,-0.38,10.24
19.58738684654236,-10.43,8.48,-1.17,13.49
19.59774684906006,-14.0,9.39,-1.03,16.88
19.633352756500244,-16.07,10.37,0.13,19.12
19.63498282432556,-16.99,11.21,1.45,20.4
19.636157989501953,-12.94,10.89,3.82,17.33
19.6403226852417,-5.24,11.76,5.05,13.82
19.656186819076538,1.48,14.83,3.09,15.22
19.657450675964355,3.85,11.9,5.83,13.79
19.671234846115112,0.49,6.14,7.61,9.79
19.677690982818604,-4.76,2.39,6.53,8.42
19.68851900100708,-8.99,0.28,4.97,10.27
19.69841980934143,-11.1,-1.73,4.68,12.16
19.73270082473755,-10.07,-2.35,6.21,12.06
19.734118938446045,-5.98,0.16,6.48,8.81
19.735302925109863,0.28,-0.37,0.55,0.71
19.740166902542114,7.36,-3.7,-3.33,8.88
19.747965812683105,7.48,-4.97,-0.31,8.98
19.757728815078735,-1.6,-3.59,1.64,4.25
19.768086910247803,-6.75,-4.17,2.8,8.41
19.7789568901062,-8.66,-6.36,2.94,11.13
19.788676738739014,-10.31,-7.64,1.89,12.97
19.798985958099365,-10.53,-6.74,0.96,12.53
19.83364200592041,-7.28,-5.52,0.52,9.15
19.83523988723755,-4.58,-4.87,0.71,6.72
19.836383819580078,-3.82,-4.44,0.67,5.89
19.84008288383484,-3.63,-4.31,0.62,5.66
19.855690002441406,-3.77,-4.03,0.64,5.55
19.85832381248474,-3.85,-3.64,0.67,5.34
19.871311902999878,-3.53,-3.0,0.69,4.68
19.878931999206543,-2.96,-2.28,0.84,3.82
19.88918399810791,-2.54,-1.63,1.06,3.19
19.899605751037598,-2.43,-0.87,1.16,2.82
19.93333387374878,-2.43,0.04,1.3,2.75
19.93464183807373,-2.3,0.75,1.91,3.08
19.935826778411865,-1.68,1.28,2.4,3.19
19.939411878585815,-0.3,1.54,2.09,2.61
19.956299781799316,1.17,2.15,1.13,2.69
19.958823680877686,2.44,3.29,-0.1,4.09
19.971346855163574,3.72,4.3,-1.11,5.79
19.97947382926941,4.89,5.46,-1.37,7.45
19.98979687690735,5.61,5.6,-1.51,8.06
20.000163793563843,5.65,5.89,-1.09,8.23
20.036367893218994,5.37,7.06,-0.94,8.91
20.03769302368164,5.38,7.67,-0.94,9.41
20.038641929626465,6.16,7.92,-0.59,10.05
20.05867886543274,7.74,7.34,-0.01,10.66
20.0604829788208,10.11,6.54,0.14,12.04
20.07262897491455,12.61,6.2,-0.1,14.05
20.074370861053467,13.83,5.42,-0.03,14.85
20.08914589881897,13.35,3.66,0.05,13.84
20.09169101715088,11.99,2.07,-0.8,12.19
20.10581088066101,10.72,1.55,-2.12,11.03
20.135375022888184,9.57,2.17,-1.49,9.92
20.13689088821411,9.22,2.02,-1.49,9.55
20.13784170150757,11.76,1.81,-4.41,12.68
20.14048480987549,13.31,2.93,-6.22,14.98
20.150149822235107,7.23,1.55,-11.18,13.4
20.1605486869812,-6.78,6.95,-3.78,10.41
20.170321941375732,-11.99,16.96,5.53,21.49
20.181185722351074,-0.81,16.63,4.76,17.31
20.19132900238037,8.24,8.39,10.0,15.43
20.20126986503601,12.52,2.12,-1.5,12.78
20.235546827316284,15.14,1.74,-12.12,19.47
20.23713493347168,4.55,-3.15,0.53,5.55
20.23832678794861,-1.66,-4.53,6.71,8.26
20.240907669067383,-2.66,-3.83,7.21,8.58
20.25053071975708,-2.35,-0.73,-0.79,2.58
20.261059761047363,2.23,1.44,-5.64,6.23
20.27097988128662,6.48,1.67,-3.11,7.37
20.28139591217041,7.78,0.77,-0.67,7.84
20.291557788848877,5.37,-0.5,0.25,5.39
20.30168390274048,1.63,-1.23,0.88,2.22
20.334235906600952,-1.07,-1.03,1.26,1.94
20.33586287498474,-2.05,-0.16,0.97,2.27
20.337005853652954,-1.53,0.5,0.68,1.74
20.341672897338867,-0.5,0.52,0.43,0.83
20.351491928100586,0.25,0.25,0.03,0.35
20.36183786392212,0.65,-0.19,-0.34,0.75
20.371930837631226,0.82,-0.41,-0.29,0.96
20.381776809692383,0.48,-0.3,0.27,0.62
20.392489910125732,-0.44,0.01,0.54,0.69
20.402503967285156,-1.31,0.16,0.69,1.48
20.434998989105225,-1.64,0.16,0.63,1.76
20.436498880386353,-1.41,0.14,0.54,1.51
20.43761682510376,-0.95,0.11,0.29,0.99
20.44183087348938,-0.63,0.14,0.2,0.67
20.45194101333618,-0.72,0.19,0.38,0.83
20.462175846099854,-0.77,0.24,0.35,0.87
20.47237491607666,-0.44,0.09,0.37,0.58
20.482407808303833,-0.23,0.07,0.4,0.46
20.493135929107666,-0.31,0.21,0.28,0.46
20.50371789932251,-0.33,0.29,0.23,0.49
20.536950826644897,-0.24,0.36,0.48,0.64
20.53853988647461,-0.26,0.5,0.62,0.83
20.53967785835266,-0.34,0.64,0.68,0.99
20.559655904769897,-0.6,0.76,0.74,1.21
20.560507774353027,-0.94,0.82,0.68,1.42
20.5738308429718,-1.1,0.75,0.5,1.42
20.575397968292236,-1.32,0.66,0.68,1.62
20.59134292602539,-1.44,0.65,0.58,1.68
20.594048976898193,-1.62,0.84,0.29,1.84
20.606894969940186,-1.91,1.26,-0.02,2.28
20.633606910705566,-2.12,1.52,-0.09,2.61
20.635238885879517,-2.28,1.88,-0.31,2.97
20.636408805847168,-2.41,2.34,0.11,3.36
20.643091678619385,-2.85,2.64,0.41,3.9
20.65628671646118,-3.33,2.76,0.41,4.34
20.663074016571045,-3.49,2.73,0.19,4.43
20.673345804214478,-2.21,2.52,0.08,3.35
20.68402099609375,-1.95,2.48,-0.1,3.15
20.694201946258545,-5.52,3.29,-0.29,6.43
20.705101013183594,-5.44,3.9,0.06,6.69
20.738670825958252,-4.86,5.04,0.06,7.0
20.73998785018921,-5.79,6.31,0.31,8.56
20.741143703460693,-7.91,7.42,0.23,10.84
20.76009488105774,-10.73,8.58,-0.21,13.74
20.76125192642212,-11.36,9.27,-0.72,14.67
20.77338171005249,-10.69,9.52,-0.56,14.32
20.77517795562744,-13.48,10.31,-0.11,16.97
20.789124011993408,-14.71,10.8,1.74,18.33
20.794473886489868,-14.98,11.56,2.94,19.14
20.8072566986084,-8.32,12.46,4.37,15.6
20.838722705841064,0.4,13.28,4.7,14.09
20.840304851531982,6.15,9.66,3.54,11.98
20.841482877731323,3.86,4.71,5.3,8.07
20.8611958026886,-3.49,1.61,5.07,6.36
20.863013744354248,-9.35,-0.4,3.45,9.97
20.87190294265747,-12.23,-1.83,3.0,12.72
20.87431788444519,-12.74,-2.47,4.9,13.87
20.888481855392456,-7.66,-1.32,6.56,10.17
20.895261764526367,-1.15,-1.06,2.48,2.93
20.90647602081299,6.01,-3.18,-1.49,6.96
20.939417839050293,8.72,-5.32,-0.45,10.22
20.94103980064392,2.27,-4.62,1.51,5.36
20.942214965820312,-4.89,-3.98,1.9,6.58
20.960248947143555,-7.29,-5.5,1.68,9.28
20.961143016815186,-9.14,-7.28,0.88,11.71
20.973793983459473,-10.66,-7.24,-0.01,12.88
20.97569179534912,-10.27,-5.42,-0.1,11.61
20.98849391937256,-6.38,-4.5,0.59,7.82
20.996034860610962,-3.85,-4.13,0.91,5.71
21.007668018341064,-2.94,-3.87,0.6,4.89
21.037965774536133,-3.11,-3.71,0.1,4.84
21.03947401046753,-3.85,-3.53,-0.16,5.22
21.040647983551025,-4.46,-3.18,-0.06,5.47
21.060380935668945,-4.86,-2.71,0.13,5.56
21.061588764190674,-4.95,-1.99,0.3,5.34
21.07350182533264,-4.38,-1.2,0.77,4.6
21.0759220123291,-3.2,-0.47,1.33,3.49
21.08867073059082,-1.84,0.16,1.37,2.29
21.096595764160156,-0.63,0.69,0.75,1.19
21.106693744659424,0.31,1.57,-0.14,1.6
21.13950777053833,1.26,2.81,-1.26,3.32
21.141063690185547,2.46,4.47,-1.98,5.47
21.142223834991455,3.73,5.85,-2.24,7.29
21.16073489189148,4.63,6.22,-1.89,7.98
21.161893844604492,4.81,7.47,-1.2,8.96
21.174632787704468,4.6,8.55,-1.11,9.77
21.176450729370117,4.28,9.86,-0.34,10.75
21.189628839492798,4.59,10.46,0.57,11.43
21.197499752044678,6.64,9.52,0.97,11.64
21.207308769226074,9.69,8.0,0.54,12.57
21.240259885787964,11.26,6.63,-0.56,13.07
21.241848945617676,11.69,4.8,-0.77,12.66
21.243003845214844,13.7,3.48,-2.4,14.33
21.26039695739746,14.75,2.8,-2.55,15.22
21.261584758758545,12.09,2.39,-1.28,12.39
21.274879932403564,10.82,2.07,-1.61,11.13
21.277057886123657,10.68,1.81,-2.04,11.02
21.289625883102417,11.81,2.29,-2.49,12.28
21.298041820526123,12.73,3.0,-3.79,13.61
21.30788779258728,9.38,3.01,-9.11,13.41
21.343020915985107,-1.82,7.76,-5.15,9.48
21.344679832458496,-8.43,14.72,3.79,17.38
21.345857858657837,-3.59,17.1,7.5,19.01
21.361578941345215,7.47,5.92,7.81,12.32
21.362961769104004,13.34,0.13,-8.29,15.7
21.3764009475708,10.36,-2.52,-7.2,12.86
21.378045797348022,2.09,-4.71,2.09,5.56
21.38907289505005,1.18,-5.12,6.86,8.64
21.398176670074463,0.45,-2.95,4.05,5.03
21.408325672149658,0.27,0.71,-3.22,3.3
21.44049596786499,2.91,2.19,-4.24,5.58
21.442238807678223,5.12,2.21,-1.36,5.74
21.44344997406006,5.52,1.1,-1.09,5.73
21.45868682861328,4.19,-0.06,-0.84,4.27
21.459953784942627,2.25,-0.76,-0.03,2.37
21.473695755004883,0.49,-0.89,0.57,1.16
21.47825574874878,-0.69,-0.28,1.44,1.62
21.488642692565918,-1.38,0.33,2.03,2.47
21.49889898300171,-1.09,0.53,1.59,1.99
21.508957862854004,-0.35,0.41,1.2,1.31
21.54362678527832,0.16,0.06,0.77,0.78
21.545185804367065,0.32,-0.13,0.42,0.54
21.546320915222168,0.14,0.02,0.27,0.3
21.558434009552002,-0.28,0.2,0.47,0.58
21.55960988998413,-0.82,0.26,0.66,1.08
21.573128700256348,-1.22,0.21,0.81,1.47
21.578903675079346,-1.35,0.06,0.98,1.66
21.589224815368652,-1.25,-0.06,1.09,1.65
21.599349975585938,-1.28,-0.1,0.9,1.56
21.610143899917603,-1.94,-0.16,0.79,2.1
21.642708778381348,-2.39,0.12,0.46,2.43
21.644289016723633,-0.72,0.02,-0.06,0.72
21.645431995391846,0.98,-0.28,-0.09,1.02
21.660303831100464,0.06,0.16,0.29,0.33
21.66147470474243,-0.45,0.83,0.22,0.96
21.67266273498535,-0.33,0.61,0.16,0.71
21.679484844207764,-0.29,0.5,0.21,0.61
21.689703941345215,-0.33,0.51,0.35,0.7
21.699825763702393,-0.52,0.54,0.23,0.78
21.710665702819824,-0.7,0.66,-0.02,0.96
21.74423599243164,-0.96,0.76,-0.03,1.22
21.745767831802368,-1.29,0.76,-0.13,1.5
21.74683690071106,-1.61,0.84,-0.14,1.82
21.75868797302246,-1.85,0.93,0.02,2.07
21.760031700134277,-2.06,1.08,0.29,2.34
21.77369785308838,-2.25,1.27,0.6,2.65
21.77998185157776,-2.48,1.51,0.64,2.97
21.790491819381714,-2.64,1.82,0.59,3.26
21.80073380470276,-2.71,2.14,0.61,3.5
21.8109028339386,-2.04,2.4,0.7,3.22
21.847487926483154,-1.92,2.53,0.75,3.26
21.84905767440796,-4.71,2.93,0.53,5.57
21.850239753723145,-3.91,3.07,0.64,5.01
21.857773780822754,-3.47,3.34,0.17,4.81
21.86032485961914,-3.91,3.55,-0.28,5.28
21.873483896255493,-4.81,4.14,-0.51,6.36
21.880645751953125,-5.55,5.04,-0.5,7.51
21.890708923339844,-6.76,6.57,-0.17,9.42
21.901381969451904,-9.21,7.75,0.06,12.03
21.9114990234375,-9.41,7.78,0.16,12.21
21.944453716278076,-10.91,8.27,0.0,13.69
21.94603967666626,-14.47,9.55,0.07,17.33
21.94720482826233,-16.36,10.33,0.88,19.36
21.95900869369507,-16.22,11.46,1.68,19.93
21.96117067337036,-8.43,11.16,3.41,14.39
21.974851846694946,0.31,11.42,3.79,12.03
21.981504917144775,5.25,10.11,4.96,12.42
21.991710901260376,3.29,5.67,7.2,9.73
22.001998901367188,-2.54,2.56,5.7,6.74
22.012138843536377,-7.53,0.13,3.88,8.47
22.04648184776306,-10.81,-1.63,2.91,11.31
22.048065900802612,-12.02,-2.79,3.88,12.93
22.04921579360962,-8.65,-1.74,6.79,11.13
22.058044910430908,-3.59,-0.58,5.13,6.28
22.06137990951538,3.15,-1.96,0.27,3.71
22.073261737823486,8.0,-4.23,0.41,9.05
22.08194088935852,6.76,-5.17,1.73,8.68
22.091919898986816,-0.76,-4.33,2.51,5.06
22.102588891983032,-4.79,-4.75,2.91,7.34
22.11284875869751,-6.28,-6.24,1.78,9.03
22.1490797996521,-8.17,-6.97,-0.61,10.75
22.150672912597656,-9.98,-4.95,-1.44,11.23
22.151877880096436,-9.36,-2.81,-0.51,9.78
22.15814971923828,-5.59,-2.72,0.71,6.25
22.16205382347107,-3.36,-2.74,1.0,4.44
22.174415826797485,-2.25,-2.86,0.55,3.68
22.18270182609558,-2.35,-3.15,0.14,3.93
22.192588806152344,-3.13,-3.23,0.19,4.5
22.203146934509277,-3.5,-3.16,0.46,4.73
22.21351385116577,-3.65,-2.65,0.43,4.53
22.246792793273926,-3.55,-1.87,0.34,4.02
22.248353004455566,-3.15,-0.98,0.73,3.37
22.249491691589355,-2.52,-0.23,1.59,2.98
22.25818967819214,-1.87,0.38,2.18,2.89
22.262671947479248,-1.05,1.11,1.95,2.47
22.273918867111206,0.16,2.15,0.93,2.34
22.28347396850586,1.7,3.38,-0.35,3.79
22.2933087348938,3.31,4.88,-1.0,5.98
22.304149866104126,4.71,5.55,-1.32,7.39
22.313986778259277,5.52,5.71,-1.33,8.05
22.348639965057373,5.92,7.12,-0.66,9.28
22.3501718044281,6.01,8.29,-0.06,10.23
22.35133171081543,6.07,9.45,1.02,11.27
22.35918688774109,6.79,10.04,2.21,12.32
22.363839864730835,8.69,9.84,2.85,13.43
22.374207019805908,10.57,8.89,3.13,14.16
22.383989810943604,11.15,6.4,2.54,13.1
22.393792867660522,11.39,4.36,0.64,12.21
22.404788970947266,12.55,3.46,-2.13,13.19
22.414317846298218,13.82,2.57,-1.31,14.11
22.446715831756592,12.03,3.03,0.64,12.42
22.448302745819092,10.31,2.53,-0.27,10.61
22.44949984550476,10.82,1.17,-1.92,11.05
22.45816469192505,11.8,1.06,-3.15,12.25
22.463866710662842,13.41,1.56,-7.62,15.5
22.47415590286255,7.59,1.97,-12.76,14.97
22.484750747680664,-4.66,6.96,-8.13,11.67
22.494544982910156,-10.72,12.44,-0.14,16.42
22.505249977111816,-8.39,12.28,0.63,14.88
22.515294790267944,0.46,7.23,1.53,7.4
22.548470973968506,5.48,4.75,5.3,8.98
22.550034999847412,7.53,0.44,3.48,8.3
22.551169872283936,9.75,-4.23,-0.06,10.62
22.558666706085205,6.34,-4.73,2.61,8.32
22.564499855041504,2.22,-3.47,4.62,6.18
22.57457971572876,0.71,-1.13,3.09,3.36
22.585192680358887,-0.31,0.66,0.03,0.72
22.595691680908203,0.43,2.04,-3.59,4.15
22.605632781982422,2.44,2.33,-4.23,5.41
22.615802764892578,4.22,1.56,-3.37,5.62
22.651856899261475,5.02,0.22,-2.48,5.6
22.653380870819092,4.44,-0.89,-1.26,4.7
22.65452790260315,2.89,-1.31,0.42,3.2
22.658304691314697,1.06,-1.03,1.93,2.43
22.674235820770264,-0.48,-0.28,2.35,2.41
22.67550802230835,-1.47,0.34,2.24,2.7
22.689405918121338,-1.65,0.56,1.72,2.44
22.696013927459717,-0.96,0.4,0.82,1.32
22.70669388771057,0.15,0.02,0.13,0.19
22.716460704803467,1.0,-0.06,-0.47,1.1
22.751158714294434,1.38,0.0,-0.55,1.48
22.752553939819336,1.19,0.04,-0.09,1.19
22.753760814666748,0.43,0.09,0.67,0.8
22.758721828460693,-0.59,0.05,1.18,1.32
22.7656888961792,-1.38,0.03,1.33,1.91
22.77582287788391,-1.6,0.08,1.13,1.96
22.786285877227783,-1.3,0.06,0.81,1.53
22.79712986946106,-1.24,0.13,0.54,1.35
22.80659294128418,-1.01,0.28,0.13,1.05
22.817019939422607,-0.33,0.18,-0.09,0.38
22.85275387763977,-0.72,-0.07,0.22,0.75
22.85440182685852,-1.54,-0.11,0.48,1.61
22.855546951293945,-1.89,-0.16,0.7,2.02
22.858906745910645,-1.74,-0.18,0.78,1.91
22.866238832473755,-1.34,-0.03,0.77,1.54
22.87674379348755,-0.94,0.13,0.75,1.2
22.886935710906982,-0.65,0.24,0.64,0.94
22.897612810134888,-0.5,0.57,0.56,0.94
22.90724802017212,-0.73,0.75,0.29,1.08
22.917695999145508,-1.16,0.77,-0.04,1.39
22.952281951904297,-1.27,0.74,-0.21,1.48
22.95389485359192,-1.06,0.7,0.16,1.28
22.954989910125732,-1.1,0.7,0.7,1.47
22.958733797073364,-1.33,0.53,0.8,1.64
22.966838836669922,-1.59,1.0,0.61,1.97
22.977288722991943,-1.81,1.49,0.63,2.42
22.987385749816895,-1.93,1.83,0.49,2.7
22.997931003570557,-1.99,2.31,0.34,3.06
23.008266925811768,-2.11,2.57,0.01,3.32
23.018188953399658,-2.35,2.83,-0.23,3.68
23.05265188217163,-2.73,3.09,-0.16,4.12
23.054138898849487,-3.18,3.34,-0.25,4.61
23.055291891098022,-3.65,3.55,-0.61,5.12
23.059062004089355,-3.96,3.84,-1.2,5.64
23.067449808120728,-4.2,4.35,-1.69,6.27
23.07793378829956,-4.55,5.08,-1.8,7.05
23.088059902191162,-5.29,5.91,-1.31,8.03
23.09834384918213,-7.17,6.67,-0.56,9.8
23.10861301422119,-8.78,7.47,0.04,11.52
23.11849880218506,-9.91,8.08,0.22,12.78
23.15660786628723,-12.87,8.61,0.07,15.48
23.158216953277588,-14.29,8.64,0.92,16.72
23.15936589241028,-13.76,8.7,1.96,16.39
23.17903470993042,-10.27,8.41,3.14,13.64
23.180794715881348,-4.73,8.44,3.28,10.21
23.191715717315674,2.33,10.89,2.05,11.32
23.19420886039734,5.46,9.4,4.04,11.59
23.20733880996704,1.05,5.7,6.32,8.57
23.209771871566772,-5.07,2.84,5.59,8.06
23.224003791809082,-9.35,0.77,4.67,10.47
23.249919891357422,-11.14,-1.31,4.12,11.94
23.251508712768555,-11.87,-2.99,4.62,13.08
23.25270700454712,-9.17,-2.25,6.11,11.24
23.259216785430908,-4.03,0.62,4.99,6.44
23.2690486907959,2.47,-0.22,-1.03,2.68
23.27891969680786,7.56,-2.65,-2.43,8.37
23.289347887039185,5.13,-3.05,1.04,6.05
23.299450874328613,-3.32,-2.31,2.84,4.94
23.31009578704834,-7.07,-4.27,3.37,8.92
23.320234775543213,-8.8,-6.87,2.69,11.48
23.357290744781494,-10.76,-6.89,1.27,12.83
23.358845710754395,-11.43,-4.28,0.01,12.2
23.36001491546631,-7.94,-2.86,-0.39,8.44
23.378867864608765,-4.58,-2.49,0.1,5.21
23.380733966827393,-3.65,-1.94,0.13,4.13
23.391502857208252,-3.03,-1.93,0.07,3.59
23.39326286315918,-2.93,-2.22,0.14,3.67
23.40721368789673,-3.44,-2.39,0.43,4.21
23.41048574447632,-3.91,-2.23,0.46,4.52
23.42413902282715,-3.79,-1.68,0.44,4.16
23.456151008605957,-3.24,-0.94,0.83,3.47
23.457812786102295,-2.43,-0.16,1.32,2.77
23.45895481109619,-1.69,0.47,1.56,2.34
23.478184700012207,-1.02,0.76,1.57,2.02
23.47937774658203,-0.32,1.16,1.25,1.73
23.49155879020691,0.57,1.71,0.71,1.93
23.49331784248352,1.41,2.51,0.2,2.88
23.50707197189331,2.09,3.48,-0.12,4.06
23.510835886001587,2.7,4.4,-0.15,5.16
23.52413272857666,3.34,5.79,-0.04,6.68
23.55593776702881,4.28,7.08,0.09,8.27
23.557520866394043,5.58,7.73,0.46,9.54
23.558669805526733,6.9,7.53,1.49,10.32
23.577863693237305,7.68,8.3,0.27,11.31
23.578757762908936,8.22,8.83,-2.19,12.26
23.5919988155365,8.48,8.55,-1.0,12.08
23.593702793121338,9.78,6.89,1.7,12.08
23.606904983520508,12.08,5.05,2.91,13.41
23.611467838287354,14.42,4.32,-0.37,15.05
23.624202728271484,15.68,3.17,-4.32,16.57
23.656120777130127,14.39,2.04,-2.77,14.79
23.657684803009033,10.79,2.83,0.1,11.15
23.65878200531006,10.76,2.33,-1.79,11.15
23.67793083190918,11.61,2.48,-3.03,12.25
23.678802013397217,14.25,2.17,-5.73,15.51
23.69161367416382,12.77,1.56,-10.38,16.53
23.693542957305908,-0.14,3.57,-7.58,8.37
23.707278728485107,-10.02,9.95,1.9,14.24
23.712061882019043,-9.75,15.31,2.9,18.38
23.72496271133423,-0.68,13.27,4.01,13.87
23.752025842666626,6.07,5.84,8.78,12.16
23.753633975982666,9.89,0.02,-1.9,10.07
23.754827976226807,11.39,-1.74,-6.96,13.46
23.76173973083496,4.4,-3.97,1.86,6.21
23.774523735046387,-0.86,-3.65,6.54,7.53
23.781680822372437,-1.65,-2.27,6.44,7.02
23.7921199798584,-0.97,-0.44,-0.45,1.15
23.80271887779236,2.34,1.1,-5.79,6.34
23.81299591064453,5.29,1.7,-4.51,7.15
23.823118686676025,6.13,1.38,-1.89,6.56
23.85830068588257,5.29,0.11,-0.87,5.36
23.859659671783447,3.59,-0.99,-0.15,3.72
23.860814809799194,1.8,-1.33,1.01,2.45
23.878315925598145,0.42,-0.77,1.51,1.74
23.87946367263794,-0.32,-0.04,1.67,1.7
23.891825675964355,-0.65,0.42,1.52,1.7
23.89348602294922,-0.66,0.56,1.1,1.39
23.907043933868408,-0.34,0.29,0.57,0.72
23.91329288482666,0.11,-0.03,-0.18,0.21
23.924299716949463,0.59,-0.04,-0.38,0.7
23.959966897964478,0.75,0.03,0.14,0.76
23.961565017700195,0.29,0.04,0.61,0.67
23.962702751159668,-0.57,0.01,0.98,1.13
23.97832489013672,-1.25,0.01,1.11,1.67
23.97908878326416,-1.5,0.05,1.11,1.86
23.9917049407959,-1.36,0.06,0.91,1.63
23.9935359954834,-1.31,-0.1,0.66,1.47
24.00730800628662,-1.41,0.13,0.47,1.49
24.013778686523438,-0.57,0.13,0.24,0.63
24.02466583251953,-0.02,-0.18,0.16,0.24
24.060487747192383,-1.02,-0.28,0.41,1.13
24.062030792236328,-1.74,0.18,0.42,1.79
24.063214778900146,-1.41,0.48,0.62,1.61
24.078336715698242,-0.89,0.71,0.62,1.29
24.07903480529785,-0.63,0.74,0.5,1.09
24.091277837753296,-0.63,0.64,0.66,1.11
24.093978881835938,-0.99,0.69,0.8,1.44
24.107260704040527,-1.46,0.74,1.01,1.92
24.114486694335938,-1.91,0.66,1.11,2.3
24.124876976013184,-2.07,0.7,1.06,2.42
24.160643815994263,-1.92,0.67,0.44,2.08
24.16220998764038,-1.89,1.01,-0.34,2.16
24.163402795791626,-2.01,1.37,-0.01,2.43
24.17859172821045,-2.09,1.47,-0.22,2.56
24.17947769165039,-1.93,1.88,-0.1,2.69
24.192139863967896,-2.23,2.19,0.07,3.12
24.194937705993652,-2.58,2.53,-0.29,3.62
24.207602977752686,-2.55,2.68,-0.32,3.71
24.215153694152832,-2.62,2.52,-0.27,3.64
24.225467681884766,-2.92,2.7,-0.35,3.99
24.259953022003174,-3.66,3.37,-0.12,4.97
24.2615647315979,-4.39,3.84,0.02,5.83
24.262712001800537,-4.96,4.33,-0.41,6.59
24.27892780303955,-5.39,5.25,-0.59,7.54
24.280112743377686,-4.56,6.2,-0.17,7.69
24.291584014892578,-7.34,6.84,-0.42,10.04
24.29548978805542,-10.85,7.56,-0.48,13.23
24.307642936706543,-12.64,8.07,-0.16,14.99
24.315624713897705,-13.76,9.39,0.47,16.66
24.326509952545166,-14.27,10.08,1.5,17.53
24.358847856521606,-14.44,10.25,2.74,17.91
24.360376834869385,-10.66,10.04,3.94,15.16
24.3615779876709,-3.58,10.29,4.34,11.72
24.378930807113647,3.67,11.03,3.16,12.04
24.37987470626831,4.81,9.16,5.98,11.94
24.391793727874756,-0.42,5.24,7.37,9.05
24.396081924438477,-6.34,2.2,6.09,9.06
24.407368898391724,-9.99,-0.11,4.79,11.07
24.416499853134155,-11.07,-1.67,4.17,11.94
24.42662477493286,-9.09,-2.94,5.45,10.99
24.45982074737549,-5.0,-1.21,7.13,8.79
24.461421012878418,1.26,-0.76,0.44,1.53
24.46255588531494,8.35,-3.16,-3.03,9.42
24.4791316986084,7.18,-4.12,1.36,8.38
24.480328798294067,-2.62,-2.58,3.16,4.84
24.491293907165527,-7.11,-4.15,3.75,9.04
24.496420860290527,-8.78,-6.97,3.25,11.67
24.507527828216553,-10.47,-7.59,1.32,12.99
24.51703381538391,-11.16,-5.21,-0.63,12.33
24.52735686302185,-8.32,-3.12,-1.37,8.99
24.56178092956543,-4.68,-2.61,-0.7,5.4
24.56315779685974,-3.38,-2.38,-0.18,4.13
24.564291954040527,-2.64,-2.7,0.05,3.77
24.577049732208252,-2.76,-3.13,-0.05,4.17
24.5782368183136,-3.39,-3.23,0.03,4.68
24.592710971832275,-3.58,-3.04,0.31,4.7
24.596964836120605,-3.6,-2.55,0.42,4.43
24.608178853988647,-3.59,-1.81,0.38,4.03
24.617655754089355,-3.3,-1.04,0.67,3.52
24.62776279449463,-2.56,-0.37,1.41,2.94
24.662396907806396,-1.64,0.03,2.06,2.63
24.66396188735962,-0.9,0.54,2.1,2.34
24.66509771347046,-0.07,1.36,1.58,2.08
24.678776741027832,0.98,2.45,0.81,2.76
24.67992067337036,2.25,3.65,0.09,4.28
24.6926326751709,3.64,5.24,-0.14,6.38
24.697593688964844,4.98,6.12,-0.52,7.9
24.7082200050354,5.92,6.53,-0.45,8.82
24.71811079978943,6.47,8.03,0.24,10.31
24.728428840637207,6.61,9.13,0.76,11.29
24.7616708278656,7.06,9.88,1.06,12.18
24.763219833374023,8.05,9.4,1.09,12.42
24.764351844787598,9.52,8.21,1.66,12.68
24.778137683868408,10.09,6.89,2.76,12.52
24.779300689697266,9.89,4.79,2.84,11.34
24.792868852615356,10.42,3.72,1.35,11.14
24.798147678375244,12.94,2.88,-0.88,13.28
24.80891990661621,15.16,1.22,-0.36,15.21
24.818862915039062,14.66,1.35,-0.18,14.72
24.829147815704346,13.98,2.3,-3.12,14.5
24.864710807800293,15.52,2.14,-8.91,18.02
24.866288900375366,13.37,3.51,-16.54,21.55
24.867496967315674,1.91,8.27,-20.58,22.26
24.87672781944275,-12.76,14.99,-6.98,20.88
24.878909826278687,-15.34,12.09,1.98,19.63
24.892170906066895,-0.71,2.38,3.69,4.44
24.898854732513428,7.68,-0.84,5.31,9.37
24.909682750701904,8.83,0.57,3.35,9.46
24.919461727142334,10.25,2.01,8.61,13.53
24.92970585823059,11.37,-2.31,13.41,17.73
24.967904806137085,8.88,-0.45,4.48,9.95
24.96938467025757,0.49,1.56,-0.48,1.7
24.970475673675537,-4.86,1.84,-2.91,5.95
24.976008892059326,-4.43,1.51,-4.91,6.78
24.979037761688232,0.72,0.22,-4.9,4.95
24.992369890213013,5.97,-0.05,-4.46,7.45
24.99941396713257,8.25,-0.24,-2.22,8.54
25.009953022003174,7.09,-0.85,-0.11,7.14
25.01983880996704,3.27,-0.83,1.52,3.7
25.03046679496765,-0.52,-0.59,3.01,3.11
25.0653178691864,-3.25,-0.38,3.51,4.79
25.06693696975708,-4.2,0.3,2.42,4.85
25.068068981170654,-2.56,0.7,0.87,2.79
25.076361894607544,0.41,0.32,-0.39,0.65
25.07963275909424,2.56,-0.12,-1.33,2.88
25.092575788497925,3.19,-0.36,-1.16,3.41
25.100005865097046,2.32,-0.41,-0.18,2.36
25.110747814178467,0.4,-0.32,0.95,1.07
25.120824813842773,-1.67,-0.11,1.66,2.35
25.13093376159668,-3.02,0.18,1.53,3.39
25.166934967041016,-2.93,0.4,1.05,3.13
25.168489933013916,-1.82,0.27,0.62,1.94
25.169705867767334,-1.23,0.21,0.16,1.25
25.176292896270752,-0.67,0.47,-0.11,0.82
25.180263996124268,0.3,0.07,-0.16,0.34
25.192237854003906,-0.02,-0.22,0.47,0.51
25.200850009918213,-1.57,0.17,0.87,1.8
25.210984706878662,-2.04,0.46,0.89,2.27
25.221674919128418,-1.53,0.19,0.84,1.75
25.231436729431152,-0.87,-0.04,0.64,1.08
25.263850688934326,-0.34,-0.13,0.36,0.51
25.265365839004517,-0.1,0.1,0.32,0.34
25.266498804092407,-0.05,0.59,0.39,0.7
25.276386737823486,-0.17,0.76,0.43,0.88
25.280823707580566,-0.57,0.78,0.63,1.15
25.29250192642212,-1.07,0.82,0.98,1.66
25.301443815231323,-1.51,0.54,1.52,2.2
25.311532974243164,-1.48,0.34,0.95,1.79
25.322447776794434,-1.45,1.01,0.54,1.84
25.332246780395508,-1.97,1.33,0.07,2.37
25.368199825286865,-2.14,1.54,-0.39,2.66
25.36984395980835,-1.86,2.03,-0.5,2.79
25.3710458278656,-1.75,2.62,-0.2,3.15
25.37640881538391,-2.13,3.1,0.05,3.76
25.381378889083862,-2.73,3.38,0.58,4.38
25.39164090156555,-3.47,3.6,1.13,5.12
25.402042865753174,-4.36,4.11,1.23,6.11
25.41213083267212,-5.04,4.6,0.93,6.88
25.4228618144989,-5.32,4.92,0.11,7.24
25.432756900787354,-5.51,5.34,-0.81,7.71
25.464520931243896,-5.77,5.95,-1.17,8.37
25.466097831726074,-6.69,6.31,-1.0,9.25
25.467247009277344,-8.28,6.63,-0.71,10.63
25.476472854614258,-8.17,6.85,0.12,10.66
25.48197078704834,-11.85,8.05,0.25,14.32
25.492815017700195,-14.0,8.77,1.22,16.56
25.50237488746643,-14.66,8.62,2.3,17.16
25.51268982887268,-11.35,8.23,3.38,14.42
25.523406982421875,-5.28,8.35,4.29,10.77
25.533248901367188,0.7,10.62,4.04,11.38
25.56851577758789,4.06,10.63,4.76,12.33
25.570101737976074,1.75,7.42,6.54,10.04
25.57128882408142,-3.18,4.0,6.41,8.19
25.576528787612915,-7.38,1.33,5.68,9.4
25.583539962768555,-9.39,-0.64,4.86,10.59
25.592986822128296,-9.1,-1.95,5.43,10.77
25.60328197479248,-6.2,-0.82,7.49,9.75
25.613585948944092,-1.44,0.43,3.17,3.5
25.623787879943848,5.66,-1.67,-1.56,6.1
25.634235858917236,7.26,-3.42,1.16,8.1
25.66968083381653,-1.34,-2.2,2.71,3.73
25.67127275466919,-7.21,-2.9,2.65,8.21
25.672818899154663,-9.19,-5.24,2.19,10.8
25.678618907928467,-10.81,-5.92,1.19,12.38
25.69268274307251,-10.92,-4.7,0.13,11.88
25.693919897079468,-7.12,-3.81,-0.37,8.08
25.707764863967896,-4.04,-3.32,-0.47,5.25
25.71374487876892,-3.07,-3.01,-0.55,4.33
25.725371837615967,-2.83,-3.09,-0.31,4.2
25.73486089706421,-3.16,-3.45,0.05,4.67
25.76698589324951,-3.33,-3.76,0.19,5.02
25.76827573776245,-3.51,-3.58,0.33,5.02
25.769282817840576,-4.08,-3.05,0.31,5.1
25.776488780975342,-4.68,-2.15,0.07,5.15
25.784296989440918,-4.86,-1.16,0.32,5.0
25.794031858444214,-4.64,-0.36,1.29,4.82
25.804442882537842,-4.06,0.29,2.43,4.74
25.814891815185547,-3.2,0.91,2.85,4.38
25.8246648311615,-2.13,1.53,2.48,3.6
25.83539080619812,-1.09,2.24,1.67,2.99
25.869844913482666,-0.13,3.08,0.75,3.17
25.871495723724365,0.85,3.98,-0.04,4.06
25.8726749420166,1.77,4.7,-0.35,5.03
25.876588821411133,2.33,5.38,-0.15,5.86
25.89194083213806,2.37,6.47,0.03,6.89
25.894558906555176,2.59,7.52,-0.2,7.95
25.90760898590088,3.26,9.67,-0.47,10.21
25.915499687194824,4.29,10.16,-1.27,11.1
25.925657749176025,4.99,8.51,0.55,9.88
25.935723781585693,6.71,5.89,-0.23,8.93
25.972696781158447,9.04,6.82,-3.47,11.84
25.974109888076782,10.03,7.36,-2.39,12.66
25.97530484199524,11.43,5.17,-0.22,12.54
25.996307849884033,13.73,3.36,-2.41,14.33
25.99811601638794,15.36,2.46,-6.12,16.71
26.009150981903076,15.62,1.84,-3.84,16.18
26.010934829711914,14.08,1.17,-0.17,14.12
26.02553367614746,12.53,1.41,-0.72,12.62
26.028199672698975,12.68,1.27,-2.56,12.99
26.042354822158813,14.84,1.79,-4.04,15.48
26.071101903915405,13.38,3.32,-4.06,14.37
26.072595834732056,5.71,3.71,-8.09,10.57
26.073734760284424,-6.33,7.28,-4.59,10.68
26.077358722686768,-14.15,15.87,2.5,21.4
26.085737705230713,-9.31,15.37,1.15,18.0
26.096370697021484,2.44,6.76,3.92,8.18
26.106083869934082,5.9,4.11,9.47,11.89
26.11611580848694,9.99,-1.2,1.4,10.15
26.12676477432251,15.17,-3.44,-4.55,16.2
26.136706829071045,11.89,-4.5,1.76,12.83
26.172236919403076,4.06,-3.28,3.74,6.42
26.173824787139893,1.06,-1.48,3.46,3.9
26.17499876022339,-1.08,0.89,-0.77,1.59
26.196401834487915,-0.69,2.38,-3.79,4.52
26.19755482673645,2.55,2.07,-3.27,4.63
26.20931887626648,5.55,0.54,-2.22,6.0
26.211058855056763,6.05,-0.66,-1.77,6.33
26.225870847702026,3.82,-1.01,-0.53,3.98
26.228245735168457,1.01,-0.74,0.97,1.58
26.24225902557373,-0.93,-0.16,1.61,1.86
26.269059896469116,-1.5,0.26,1.85,2.39
26.27063798904419,-0.98,0.18,2.02,2.25
26.27183198928833,-0.3,-0.04,1.52,1.54
26.277228832244873,0.06,-0.13,0.77,0.78
26.2872576713562,0.23,-0.2,0.19,0.35
26.297517776489258,0.37,-0.16,-0.02,0.4
26.307921886444092,0.33,0.0,0.32,0.45
26.317871809005737,-0.12,0.11,0.66,0.67
26.32792568206787,-0.92,0.1,0.97,1.34
26.338384866714478,-1.68,0.03,1.21,2.07
26.3782057762146,-2.41,-0.05,1.15,2.67
26.379817008972168,-2.79,-0.01,0.84,2.91
26.38101887702942,-1.68,0.28,0.33,1.73
26.397292852401733,-0.6,0.1,0.08,0.61
26.398555755615234,-0.63,-0.02,0.2,0.66
26.410347938537598,-1.44,0.23,0.42,1.51
26.412139892578125,-1.84,0.37,0.47,1.93
26.424603939056396,-1.37,0.31,0.68,1.56
26.42796277999878,-0.84,0.29,0.84,1.22
26.441945791244507,-0.39,0.46,0.72,0.93
26.468082904815674,-0.28,0.48,0.66,0.86
26.469671726226807,-0.61,0.43,0.7,1.02
26.470821857452393,-0.96,0.44,0.5,1.16
26.478185892105103,-1.26,0.51,0.19,1.37
26.488409996032715,-1.5,0.69,0.25,1.66
26.498548984527588,-1.61,0.75,0.55,1.85
26.50895071029663,-1.66,0.65,0.83,1.96
26.518993854522705,-1.62,0.99,0.71,2.02
26.529225826263428,-1.81,1.38,0.41,2.31
26.539759874343872,-1.82,1.7,0.17,2.49
26.576100826263428,-1.73,2.1,-0.04,2.72
26.577692985534668,-1.69,2.58,0.21,3.09
26.57892680168152,-2.11,2.97,0.47,3.67
26.59617280960083,-2.93,3.43,0.67,4.56
26.597349882125854,-2.7,3.76,0.66,4.67
26.610573768615723,-3.54,3.86,-0.05,5.23
26.61228084564209,-6.53,4.58,-0.66,8.0
26.624642848968506,-4.97,5.14,-0.71,7.18
26.629199981689453,-4.86,6.02,-0.94,7.79
26.641873836517334,-6.65,6.74,-0.61,9.48
26.67189073562622,-9.4,7.55,-0.48,12.06
26.673502922058105,-11.99,8.63,-0.47,14.78
26.67465591430664,-12.26,9.08,-0.14,15.25
26.679340839385986,-9.28,9.09,1.42,13.06
26.689494848251343,-11.37,9.4,1.67,14.84
26.700111865997314,-13.33,9.17,2.81,16.42
26.709871768951416,-9.91,8.79,3.67,13.74
26.720290899276733,-1.91,9.99,3.46,10.74
26.730402946472168,3.6,10.12,3.66,11.34
26.741079807281494,3.4,6.77,5.83,9.55
26.77318286895752,-1.86,3.69,6.11,7.37
26.774770736694336,-7.6,1.41,5.49,9.48
26.77591586112976,-10.71,-0.71,4.84,11.77
26.79622483253479,-11.26,-2.51,5.2,12.65
26.79710102081299,-7.79,-2.24,6.95,10.67
26.80981683731079,-2.07,-0.3,4.02,4.53
26.81165385246277,5.1,-1.4,-2.13,5.7
26.82583999633789,8.1,-3.23,0.21,8.72
26.83079195022583,0.34,-2.17,2.7,3.48
26.842773914337158,-6.25,-2.53,3.06,7.4
26.87485694885254,-8.3,-4.98,3.0,10.13
26.876428842544556,-9.19,-6.21,1.87,11.24
26.877538681030273,-9.37,-5.34,0.14,10.78
26.896784782409668,-6.75,-3.94,-0.82,7.85
26.898576736450195,-4.22,-3.19,-0.76,5.34
26.910228729248047,-3.31,-2.92,-0.31,4.42
26.911983013153076,-2.88,-2.95,0.22,4.12
26.925428867340088,-2.7,-3.32,0.68,4.33
26.931415796279907,-2.75,-3.69,0.87,4.68
26.942863941192627,-3.03,-3.79,0.88,4.93
26.975992679595947,-3.71,-3.35,0.89,5.07
26.97754669189453,-4.22,-2.65,0.67,5.02
26.978688716888428,-4.3,-1.81,0.63,4.7
26.996558904647827,-3.91,-1.17,1.11,4.22
26.99742579460144,-3.41,-0.54,1.85,3.91
27.009799003601074,-2.68,0.07,2.17,3.44
27.01180076599121,-1.84,0.66,2.05,2.83
27.025592803955078,-0.85,1.41,1.55,2.26
27.032548904418945,0.22,2.27,0.85,2.43
27.042609691619873,1.14,3.34,0.09,3.53
27.079535961151123,1.91,4.41,-0.34,4.81
27.080938816070557,2.36,5.72,-0.34,6.19
27.081904888153076,2.85,6.27,-0.18,6.88
27.0964298248291,3.19,6.95,0.18,7.64
27.09729766845703,3.6,8.02,0.42,8.8
27.109745025634766,4.95,8.92,0.29,10.2
27.112120866775513,7.38,9.44,0.11,11.98
27.12550687789917,9.25,9.32,0.54,13.14
27.132970809936523,9.48,7.77,1.37,12.33
27.142943859100342,8.87,5.44,1.66,10.53
27.178995847702026,8.03,4.31,0.24,9.11
27.18060278892517,8.88,3.81,-1.48,9.77
27.181752681732178,11.23,3.33,-0.27,11.71
27.1971378326416,13.28,2.75,0.76,13.58
27.19833278656006,14.51,1.68,-1.26,14.66
27.2108097076416,15.54,0.98,-3.01,15.85
27.212814807891846,16.79,1.51,-5.42,17.7
27.225011825561523,16.05,3.51,-9.29,18.87
27.233640670776367,11.32,5.78,-18.17,22.17
27.243238925933838,-2.33,9.84,-12.94,16.42
27.27778196334839,-11.92,12.35,3.46,17.5
27.279289722442627,-8.12,9.43,4.67,13.29
27.28045082092285,3.01,3.44,2.81,5.36
27.29684281349182,5.74,4.21,4.32,8.32
27.29797387123108,7.29,1.46,6.83,10.09
27.310072898864746,10.97,-2.98,2.58,11.65
27.313328742980957,8.69,-2.67,3.12,9.61
27.325894832611084,1.67,-2.29,4.15,5.02
27.33402395248413,-1.5,0.0,2.31,2.75
27.344199895858765,-2.25,1.28,-0.21,2.59
27.38155698776245,-0.02,1.35,-3.12,3.39
27.383200883865356,4.11,0.68,-4.08,5.83
27.38436794281006,7.07,0.02,-3.56,7.91
27.3940167427063,7.3,-0.59,-1.81,7.54
27.395184993743896,4.3,-0.72,-0.21,4.36
27.4095458984375,0.59,-0.4,0.83,1.09
27.413684844970703,-1.81,0.04,1.67,2.46
27.425395965576172,-2.75,0.35,2.01,3.42
27.434115886688232,-2.3,0.46,1.69,2.89
27.444779872894287,-0.87,0.28,1.07,1.4
27.477685928344727,0.63,-0.08,0.28,0.69
27.479261875152588,1.54,-0.31,-0.26,1.59
27.480429887771606,1.66,-0.36,0.01,1.69
27.49677276611328,0.8,-0.29,0.52,0.99
27.4979248046875,-0.59,-0.01,0.96,1.12
27.509356021881104,-1.86,0.19,1.27,2.26
27.514229774475098,-2.53,0.3,1.38,2.89
27.52501678466797,-2.59,0.1,1.16,2.83
27.535010814666748,-2.24,0.18,0.58,2.32
27.54531478881836,-0.94,0.37,0.08,1.01
27.580002784729004,-0.42,0.06,0.05,0.42
27.581589698791504,-0.65,-0.11,0.2,0.68
27.582690715789795,-1.27,-0.11,0.46,1.35
27.5955069065094,-1.73,0.1,0.58,1.82
27.59667181968689,-1.33,0.34,0.66,1.52
27.610745906829834,-0.55,0.44,0.76,1.03
27.615230798721313,-0.05,0.66,0.71,0.97
27.625333786010742,-0.05,0.6,0.58,0.83
27.635682821273804,-0.35,0.36,0.39,0.63
27.645925998687744,-0.8,0.17,0.39,0.9
27.678983688354492,-1.2,0.29,0.4,1.29
27.680564880371094,-1.32,0.5,0.29,1.44
27.681707859039307,-1.15,0.96,-0.14,1.5
27.696924686431885,-1.2,1.38,0.25,1.84
27.69811773300171,-1.8,1.68,1.0,2.65
27.712389945983887,-2.54,1.92,1.29,3.43
27.71607279777527,-2.82,2.43,1.05,3.86
27.726788997650146,-2.78,2.76,1.26,4.11
27.736209869384766,-2.86,2.92,1.07,4.22
27.74654984474182,-2.95,3.23,0.57,4.41
27.780489921569824,-3.3,3.67,0.1,4.93
27.782068729400635,-3.91,3.93,-0.32,5.55
27.783223867416382,-4.47,4.19,-0.82,6.18
27.795804977416992,-4.87,4.47,-1.14,6.7
27.796998977661133,-5.31,4.9,-1.42,7.36
27.809969902038574,-5.98,5.49,-1.22,8.2
27.81636381149292,-7.29,6.21,-0.89,9.61
27.826725006103516,-8.99,6.52,-0.76,11.13
27.8370258808136,-8.95,7.05,-0.71,11.41
27.847211837768555,-12.81,8.13,-0.65,15.18
27.884206771850586,-14.34,8.49,0.93,16.69
27.885791778564453,-14.51,8.94,2.55,17.23
27.88695788383484,-10.64,8.72,3.8,14.27
27.89421582221985,-4.57,9.51,4.05,11.3
27.896552801132202,2.16,11.92,2.94,12.46
27.909825801849365,4.78,10.12,4.37,12.01
27.91721773147583,0.79,6.01,5.81,8.39
27.927402019500732,-5.24,2.99,4.95,7.8
27.937583923339844,-9.81,0.73,4.22,10.7
27.947746753692627,-11.31,-0.92,3.42,11.85
27.98184585571289,-11.22,-1.97,4.18,12.13
27.983452796936035,-7.33,-0.86,5.93,9.46
27.98464870452881,-1.47,-0.06,1.49,2.09
27.996115684509277,5.6,-1.67,-2.62,6.4
27.997297763824463,7.68,-2.96,0.66,8.25
28.011125802993774,0.75,-2.23,2.83,3.68
28.017841815948486,-4.44,-3.49,3.23,6.5
28.02798891067505,-6.83,-5.97,2.82,9.49
28.03816795349121,-8.31,-7.4,1.39,11.21
28.048449993133545,-9.36,-6.72,-0.36,11.52
28.084587812423706,-9.02,-4.7,-0.74,10.19
28.08618402481079,-6.58,-3.97,-0.09,7.68
28.087347984313965,-5.4,-3.69,0.31,6.54
28.09456181526184,-5.02,-3.56,0.64,6.18
28.097741842269897,-4.63,-3.67,1.06,6.0
28.10968279838562,-4.12,-3.69,1.25,5.67
28.118659019470215,-3.8,-3.44,1.29,5.28
28.12821388244629,-3.66,-2.87,1.12,4.78
28.138880729675293,-3.43,-1.93,0.68,3.99
28.148960828781128,-2.9,-0.91,0.3,3.05
28.181609869003296,-2.19,0.04,0.35,2.21
28.183193683624268,-1.39,0.73,0.53,1.65
28.18432092666626,-0.6,1.22,0.51,1.45
28.195044994354248,0.33,1.82,0.05,1.85
28.19833993911743,1.39,2.63,-0.6,3.03
28.21142292022705,2.49,3.37,-1.21,4.36
28.218713760375977,3.26,4.09,-1.27,5.38
28.229142904281616,3.39,4.75,-0.86,5.89
28.23983383178711,3.11,4.93,-0.24,5.83
28.249740839004517,2.67,6.25,0.76,6.83
28.283816814422607,2.56,7.46,1.18,7.97
28.28539800643921,3.58,8.54,1.82,9.43
28.286534786224365,5.47,9.27,2.2,10.98
28.294532775878906,7.08,9.55,2.78,12.2
28.298942804336548,8.7,8.12,3.03,12.28
28.31082773208618,9.77,6.23,2.25,11.8
28.31949281692505,10.29,4.38,1.23,11.25
28.32992696762085,10.47,3.05,0.59,10.92
28.3400559425354,10.7,1.97,0.84,10.91
28.350656986236572,10.97,1.45,0.44,11.07
28.388844966888428,11.36,0.92,-1.54,11.5
28.390504837036133,12.43,1.05,-4.52,13.26
28.39167881011963,14.5,2.52,-7.75,16.63
28.39505386352539,15.1,3.98,-11.12,19.17
28.39978790283203,12.98,5.99,-19.39,24.09
28.410327911376953,-2.18,9.84,-9.93,14.14
28.420223712921143,-11.26,11.57,7.33,17.73
28.430750846862793,-4.59,8.39,6.07,11.32
28.44038486480713,6.42,4.25,2.65,8.14
28.450556755065918,8.58,5.16,5.0,11.19
28.48197889328003,11.28,0.76,4.3,12.09
28.483572959899902,12.27,-2.74,-0.22,12.57
28.48472285270691,3.25,-3.11,4.87,6.62
28.495162963867188,-2.01,-2.07,4.61,5.43
28.500183820724487,-3.29,0.05,0.84,3.39
28.510666847229004,-2.34,1.57,-3.32,4.35
28.520715713500977,1.93,1.8,-4.85,5.52
28.530961990356445,5.92,1.11,-3.51,6.97
28.541204929351807,7.89,-0.09,-2.41,8.25
28.55135679244995,6.95,-1.02,-0.82,7.07
28.584747791290283,3.64,-1.05,0.82,3.87
28.58633780479431,0.23,-0.55,1.92,2.01
28.587474822998047,-2.07,0.11,2.35,3.13
28.594639778137207,-2.59,0.5,2.26,3.47
28.600785732269287,-1.26,0.46,1.82,2.26
28.61127471923828,0.27,0.09,0.95,0.99
28.621311902999878,0.84,-0.12,-0.01,0.84
28.631610870361328,0.99,-0.16,-0.12,1.01
28.642241954803467,0.8,-0.13,0.36,0.88
28.65193271636963,0.17,0.02,1.1,1.11
28.68563175201416,-0.82,0.07,1.5,1.71
28.68717885017395,-1.77,0.11,1.39,2.25
28.68836784362793,-2.14,0.13,1.25,2.48
28.694921016693115,-2.19,0.23,0.93,2.39
28.70133090019226,-1.94,0.05,0.61,2.03
28.711577892303467,-1.97,0.02,0.42,2.01
28.721823692321777,-1.34,0.06,0.44,1.41
28.732675790786743,-0.51,-0.59,0.61,0.99
28.742745876312256,-1.13,-0.85,0.96,1.7
28.752729892730713,-1.96,-0.46,1.03,2.26
28.787243843078613,-1.58,0.04,1.01,1.87
28.788836002349854,-0.67,0.44,0.91,1.21
28.79002094268799,-0.11,0.56,0.78,0.96
28.794888973236084,-0.12,0.58,0.48,0.76
28.802258014678955,-0.34,0.84,0.15,0.91
28.812143802642822,-0.78,0.93,0.22,1.23
28.82250189781189,-0.97,0.98,-0.03,1.37
28.83311367034912,-0.71,1.12,0.15,1.33
28.843321800231934,-0.68,0.76,0.5,1.13
28.853179931640625,-0.27,0.69,-0.1,0.74
28.889036893844604,-0.58,1.23,-0.21,1.37
28.89055585861206,-2.98,1.67,-0.17,3.42
28.89171290397644,-2.26,1.8,0.13,2.89
28.895373821258545,-1.85,2.21,0.21,2.88
28.90248990058899,-2.25,2.34,0.07,3.24
28.912899017333984,-2.68,2.58,-0.02,3.72
28.92333984375,-2.81,2.69,0.11,3.89
28.933166980743408,-3.25,2.78,0.36,4.29
28.94394087791443,-3.97,3.32,0.49,5.19
28.953938007354736,-4.52,4.16,0.74,6.18
28.98847985267639,-5.05,4.9,1.0,7.1
28.990099906921387,-5.87,5.51,0.55,8.06
28.9912428855896,-6.63,6.23,0.17,9.09
28.995383739471436,-8.21,6.94,-0.3,10.75
29.010313987731934,-10.59,7.53,-1.04,13.03
29.013271808624268,-8.71,7.49,-0.84,11.51
29.02592182159424,-10.78,8.57,-0.74,13.79
29.034180879592896,-13.74,9.58,0.41,16.75
29.04401183128357,-15.59,9.95,1.92,18.59
29.054529905319214,-14.89,10.21,2.69,18.25
29.08942699432373,-6.38,9.93,3.61,12.34
29.09082269668579,1.82,10.45,3.58,11.19
29.09196901321411,5.39,8.55,4.33,10.99
29.09555673599243,2.17,4.71,5.65,7.66
29.104607820510864,-4.46,2.07,5.12,7.09
29.114441871643066,-9.52,0.05,4.07,10.35
29.124512672424316,-11.63,-1.7,3.73,12.33
29.134451866149902,-9.92,-2.96,5.66,11.79
29.144823789596558,-5.0,-1.36,7.26,8.91
29.15574884414673,1.48,-1.07,0.48,1.88
29.189321994781494,8.18,-3.62,-1.76,9.11
29.190932750701904,6.29,-4.21,2.08,7.84
29.19208288192749,-3.33,-2.93,3.2,5.46
29.195721864700317,-7.69,-5.01,3.42,9.79
29.204803943634033,-9.36,-7.53,2.97,12.37
29.21460199356079,-10.76,-7.71,1.31,13.3
29.22490882873535,-10.63,-5.63,-0.21,12.03
29.235492706298828,-7.0,-4.52,-0.26,8.33
29.245492935180664,-4.68,-4.33,0.45,6.39
29.25614285469055,-4.27,-4.17,1.05,6.06
29.291181802749634,-4.03,-4.18,1.52,6.0
29.29279589653015,-3.94,-4.06,1.9,5.96
29.29396390914917,-3.95,-3.63,1.85,5.67
29.314326763153076,-3.84,-2.73,1.42,4.92
29.315059900283813,-3.68,-1.48,0.67,4.02
29.32838201522827,-3.47,-0.12,-0.05,3.47
29.33105993270874,-2.94,1.31,0.0,3.21
29.343316793441772,-2.03,2.51,0.39,3.25
29.345902919769287,-0.65,3.39,0.3,3.46
29.360509872436523,1.17,4.04,-0.08,4.2
29.390492916107178,2.66,4.9,-0.91,5.64
29.39213275909424,3.81,6.05,-2.2,7.48
29.39327096939087,4.77,6.88,-3.51,9.07
29.395720958709717,5.59,7.36,-3.32,9.82
29.406013011932373,5.93,6.55,-2.27,9.12
29.416050910949707,5.64,5.63,-1.05,8.03
29.425891876220703,5.16,6.18,-0.04,8.05
29.43638277053833,5.19,7.14,0.03,8.82
29.446232795715332,5.61,7.41,0.34,9.3
29.45697784423828,6.53,5.71,0.9,8.72
29.489258766174316,7.83,5.43,1.5,9.64
29.490872859954834,7.34,5.11,3.95,9.77
29.49205493927002,6.17,4.07,5.98,9.5
29.4962477684021,6.54,3.61,3.06,8.07
29.506568908691406,9.6,2.67,0.82,9.99
29.516948699951172,12.37,1.94,1.97,12.67
29.526763916015625,13.22,1.48,2.49,13.53
29.536911964416504,13.23,1.17,1.15,13.33
29.5471408367157,12.38,1.45,-0.94,12.5
29.557645797729492,12.34,1.16,-3.35,12.83
29.594505786895752,11.92,1.43,-6.93,13.86
29.595857858657837,10.15,3.58,-13.74,17.45
29.5971097946167,2.41,5.84,-16.28,17.46
29.611766815185547,-9.57,8.45,-2.88,13.08
29.613032817840576,-11.98,10.4,4.03,16.36
29.628073692321777,-1.39,5.26,2.18,5.86
29.629843711853027,5.36,4.73,4.04,8.21
29.642952919006348,6.71,4.7,8.25,11.62
29.647519826889038,10.42,-0.38,3.35,10.95
29.66016387939453,11.2,-2.94,1.34,11.65
29.691142797470093,2.99,-3.47,5.41,7.08
29.692670822143555,-2.47,-2.07,6.31,7.08
29.69359302520752,-2.98,0.03,1.87,3.51
29.713346004486084,-1.13,1.74,-4.51,4.96
29.714587688446045,2.62,2.4,-5.93,6.91
29.727792739868164,5.96,1.65,-3.58,7.14
29.72955894470215,7.29,-0.02,-1.74,7.49
29.74614381790161,5.86,-1.38,-0.47,6.03
29.748888969421387,2.79,-1.49,1.1,3.34
29.760994911193848,-0.17,-0.82,2.4,2.54
29.791462898254395,-2.17,0.05,2.7,3.46
29.793076992034912,-2.9,0.65,2.32,3.77
29.794272899627686,-2.28,0.71,1.35,2.74
29.814499855041504,-0.67,0.33,0.21,0.77
29.815409898757935,0.97,-0.16,-0.76,1.24
29.828065872192383,2.02,-0.37,-1.03,2.29
29.829946994781494,2.08,-0.3,-0.49,2.15
29.843515872955322,0.94,-0.14,0.32,1.0
29.84918785095215,-0.87,0.05,0.98,1.31
29.860914707183838,-2.27,0.26,1.37,2.66
29.891425848007202,-2.61,0.26,1.16,2.86
29.892907857894897,-2.19,0.19,0.83,2.34
29.894047737121582,-1.45,0.05,0.53,1.54
29.91457486152649,-0.68,0.14,0.39,0.79
29.91546392440796,0.12,0.07,0.38,0.4
29.927997827529907,-0.06,-0.22,0.6,0.64
29.929868698120117,-0.95,-0.04,0.59,1.11
29.94364595413208,-1.4,0.14,0.88,1.65
29.949553966522217,-1.22,0.23,0.98,1.58
29.96097183227539,-0.83,0.35,0.81,1.21
29.996354818344116,-0.54,0.51,0.63,0.97
29.997886896133423,-0.49,0.58,0.63,0.98
29.99896478652954,-0.73,0.62,0.62,1.14
30.014766693115234,-1.15,0.67,0.57,1.44
30.015923023223877,-1.51,0.7,0.66,1.79
30.027639865875244,-1.63,0.79,0.72,1.94
30.02970790863037,-1.59,1.0,0.64,1.98
30.04357886314392,-1.62,1.14,0.96,2.2
30.05015993118286,-1.66,1.38,0.77,2.29
30.06174373626709,-1.81,2.05,-0.26,2.74
30.09574580192566,-2.04,2.45,-0.15,3.19
30.09733486175537,-2.25,2.2,-0.61,3.2
30.098468780517578,-1.97,2.05,-0.87,2.97
30.114698886871338,-1.63,2.27,-0.37,2.81
30.11536693572998,-2.01,2.44,0.45,3.19
30.127851009368896,-3.01,2.8,1.2,4.28
30.13026189804077,-3.98,3.47,1.59,5.51
30.14369773864746,-4.52,4.25,1.32,6.34
30.150746822357178,-4.77,4.98,0.59,6.92
30.16129183769226,-5.29,5.57,-0.21,7.68
30.197285890579224,-6.48,6.11,-0.91,8.95
30.198831796646118,-7.91,6.8,-0.98,10.47
30.200012683868408,-7.26,7.48,-0.49,10.43
30.21492576599121,-10.41,8.48,-0.7,13.44
30.215770721435547,-13.37,9.06,0.21,16.15
30.228025913238525,-14.47,9.18,1.22,17.17
30.23085880279541,-14.52,8.69,2.6,17.12
30.24390697479248,-9.95,7.83,3.87,13.23
30.251357793807983,-3.25,10.47,3.51,11.51
30.261699676513672,3.55,11.6,1.55,12.22
30.295910835266113,4.49,7.96,4.17,10.04
