time,ax,ay,az,atotal
0.005385160446166992,0.01,0.06,0.25,0.25
0.013058185577392578,-0.03,0.05,0.32,0.32
0.023183107376098633,-0.07,0.03,0.32,0.32
0.03439617156982422,-0.11,-0.01,0.36,0.37
0.044129133224487305,-0.06,-0.01,0.32,0.32
0.05329418182373047,0.0,0.01,0.23,0.23
0.06462311744689941,-0.03,0.02,0.23,0.23
0.07464814186096191,-0.09,0.01,0.26,0.27
0.08434820175170898,-0.09,0.03,0.21,0.23
0.0941619873046875,-0.07,0.08,0.11,0.15
0.10453915596008301,-0.01,0.13,0.09,0.15
0.11491632461547852,-0.02,0.12,0.08,0.14
0.12357711791992188,-0.05,0.1,0.12,0.16
0.13455629348754883,-0.03,0.05,0.16,0.17
0.14446020126342773,-0.03,0.05,0.11,0.12
0.15352630615234375,-0.03,0.06,0.04,0.07
0.16499710083007812,0.0,0.12,-0.01,0.12
0.17460203170776367,0.0,0.12,-0.06,0.13
0.1855771541595459,0.04,0.09,-0.01,0.09
0.19516229629516602,0.09,0.08,0.04,0.12
0.20521116256713867,0.08,0.11,0.05,0.14
0.21516013145446777,0.03,0.14,0.08,0.16
0.2250962257385254,0.03,0.12,0.08,0.14
0.23514223098754883,0.04,0.1,0.07,0.12
0.24555015563964844,0.03,0.08,0.06,0.1
0.2541680335998535,0.04,0.07,0.08,0.11
0.2656121253967285,0.13,0.08,0.09,0.17
0.2753772735595703,0.16,0.12,-0.02,0.2
0.28580617904663086,0.08,0.15,-0.09,0.19
0.295377254486084,0.06,0.14,-0.08,0.17
0.3055691719055176,0.05,0.12,0.01,0.13
0.31569409370422363,0.06,0.1,0.05,0.12
0.32603025436401367,0.06,0.11,0.01,0.12
0.335665225982666,0.05,0.14,0.06,0.16
0.34572911262512207,0.05,0.11,0.15,0.19
0.35469818115234375,0.03,0.07,0.21,0.22
0.3660449981689453,0.02,0.01,0.25,0.25
0.3759312629699707,0.07,-0.03,0.23,0.24
0.3860440254211426,0.05,-0.01,0.2,0.2
0.39614009857177734,0.07,-0.03,0.25,0.26
0.4066309928894043,0.08,0.0,0.27,0.28
0.4164609909057617,0.02,0.04,0.21,0.21
0.4262092113494873,-0.12,0.04,0.15,0.19
0.4363241195678711,-0.09,0.08,0.12,0.17
0.44644713401794434,-0.02,0.14,0.03,0.14
0.45566821098327637,-0.01,0.14,-0.04,0.14
0.46643710136413574,-0.06,0.16,-0.06,0.18
0.47654104232788086,-0.12,0.17,-0.16,0.26
0.4867730140686035,-0.12,0.19,-0.19,0.29
0.4969460964202881,-0.13,0.19,-0.18,0.29
0.5064361095428467,-0.11,0.21,-0.16,0.28
0.5162711143493652,0.01,0.21,-0.13,0.24
0.5270090103149414,0.03,0.21,-0.1,0.23
0.5364742279052734,-0.03,0.14,0.03,0.14
0.5470371246337891,-0.04,0.05,0.13,0.14
0.556049108505249,0.03,0.02,0.14,0.14
0.5666751861572266,0.07,0.04,0.08,0.11
0.5774421691894531,0.09,0.1,0.01,0.13
0.5872430801391602,0.11,0.15,-0.01,0.18
0.5972652435302734,0.17,0.17,0.02,0.24
0.6074011325836182,0.23,0.08,0.11,0.26
0.6177539825439453,0.21,-0.01,0.18,0.27
0.6274533271789551,0.19,-0.03,0.16,0.25
0.637362003326416,0.17,0.0,0.14,0.22
0.6477651596069336,0.18,0.08,0.14,0.24
0.6565160751342773,0.14,0.07,0.1,0.18
0.6677021980285645,-0.01,0.09,0.15,0.17
0.6778302192687988,-0.08,0.07,0.23,0.25
0.6876811981201172,-0.07,0.06,0.23,0.24
0.698052167892456,0.0,0.08,0.18,0.19
0.7080872058868408,-0.02,0.1,0.17,0.19
0.7179090976715088,-0.08,0.05,0.23,0.24
0.7280802726745605,-0.13,-0.01,0.3,0.32
0.7381801605224609,-0.18,0.0,0.3,0.34
0.7486910820007324,-0.13,0.02,0.16,0.2
0.7574362754821777,0.05,-0.03,0.14,0.15
0.767592191696167,0.06,0.02,0.15,0.16
0.7785372734069824,0.02,0.11,0.1,0.15
0.7880611419677734,-0.01,0.16,0.04,0.16
0.7974262237548828,0.01,0.16,0.06,0.17
0.8078351020812988,0.06,0.12,0.02,0.13
0.8176422119140625,0.06,0.13,-0.03,0.14
0.8281559944152832,0.05,0.15,-0.1,0.18
0.8377633094787598,0.04,0.16,-0.06,0.17
0.84794020652771,0.03,0.12,-0.05,0.13
0.8579471111297607,0.04,0.1,-0.05,0.11
0.8683521747589111,0.06,0.11,-0.08,0.14
0.8780760765075684,0.01,0.17,-0.15,0.22
0.8882312774658203,-0.02,0.24,-0.17,0.29
0.898245096206665,0.0,0.23,-0.22,0.31
0.9087200164794922,0.01,0.2,-0.26,0.32
0.9183382987976074,0.05,0.19,-0.28,0.34
0.9284341335296631,0.0,0.19,-0.3,0.35
0.9385542869567871,-0.06,0.2,-0.22,0.3
0.9489822387695312,-0.01,0.16,-0.17,0.23
0.9587249755859375,0.0,0.15,-0.21,0.25
0.9688200950622559,0.01,0.21,-0.23,0.31
0.9788222312927246,0.09,0.21,-0.18,0.29
0.9888811111450195,0.05,0.13,-0.02,0.14
0.998878002166748,0.0,0.06,0.02,0.06
1.0090889930725098,0.03,0.08,-0.03,0.09
1.0190682411193848,0.05,0.11,0.02,0.12
1.0291821956634521,0.02,0.1,0.0,0.1
1.0396311283111572,-0.03,0.1,-0.05,0.11
1.0493521690368652,0.04,0.12,-0.05,0.13
1.0592732429504395,0.13,0.15,0.0,0.19
1.0693891048431396,0.11,0.11,0.13,0.2
1.079596996307373,-0.02,0.06,0.23,0.23
1.0897202491760254,-0.05,0.07,0.24,0.25
1.0997090339660645,0.06,0.06,0.29,0.3
1.1097140312194824,0.09,0.04,0.3,0.31
1.1199312210083008,0.06,0.06,0.26,0.27
1.129615306854248,0.08,0.07,0.35,0.36
1.1397690773010254,0.0,0.04,0.4,0.4
1.1498191356658936,-0.13,0.02,0.37,0.39
1.1601552963256836,-0.11,0.05,0.23,0.25
1.1699652671813965,0.03,0.04,0.01,0.05
1.179915189743042,0.07,0.04,-0.2,0.21
1.1902241706848145,0.05,0.08,-0.25,0.26
1.2011451721191406,0.04,0.07,-0.04,0.09
1.2106211185455322,-0.04,0.12,0.06,0.13
1.220405101776123,-0.08,0.18,-0.04,0.2
1.2303111553192139,-0.04,0.16,-0.11,0.19
1.240537166595459,0.02,0.14,-0.07,0.15
1.250683307647705,0.09,0.12,-0.04,0.15
1.2605631351470947,0.04,0.08,-0.02,0.09
1.2707312107086182,0.03,0.08,0.0,0.08
1.280580997467041,0.05,0.09,0.04,0.11
1.2910332679748535,0.05,0.12,0.04,0.13
1.3009352684020996,0.03,0.14,0.07,0.15
1.310995101928711,-0.02,0.12,0.12,0.17
1.3210320472717285,-0.06,0.12,0.17,0.21
1.3314971923828125,0.0,0.05,0.25,0.25
1.3411180973052979,0.02,0.01,0.23,0.23
1.3512110710144043,0.01,0.03,0.12,0.12
1.3656120300292969,0.05,0.06,0.05,0.09
1.371645212173462,0.05,0.07,0.06,0.1
1.38126802444458,0.02,0.11,0.02,0.11
1.3915750980377197,0.05,0.14,-0.03,0.15
1.401327133178711,0.05,0.13,-0.05,0.14
1.4118261337280273,0.05,0.15,-0.1,0.18
1.4216551780700684,0.07,0.19,-0.14,0.24
1.431976318359375,0.07,0.2,-0.12,0.24
1.4423003196716309,0.04,0.14,-0.08,0.16
1.4529342651367188,-0.01,0.09,-0.06,0.1
1.4624443054199219,-0.05,0.09,-0.07,0.12
1.4726932048797607,-0.04,0.13,-0.09,0.16
1.4828500747680664,-0.01,0.14,-0.06,0.15
1.4934473037719727,-0.05,0.13,0.0,0.13
1.5029361248016357,-0.02,0.14,0.05,0.15
1.512681007385254,0.03,0.1,0.16,0.19
1.5226850509643555,-0.01,0.05,0.21,0.21
1.5322751998901367,-0.01,0.04,0.18,0.18
1.5427250862121582,0.01,0.05,0.15,0.15
1.553025245666504,0.01,0.05,0.18,0.18
1.5623531341552734,-0.02,0.05,0.19,0.19
1.5732421875,-0.02,0.07,0.14,0.15
1.583341121673584,0.01,0.11,0.11,0.15
1.5932440757751465,-0.02,0.12,0.08,0.14
1.6034393310546875,-0.03,0.12,0.08,0.14
1.6134719848632812,0.0,0.1,0.04,0.1
1.6238181591033936,0.09,0.11,-0.08,0.16
1.6337041854858398,0.08,0.13,-0.08,0.17
1.6434831619262695,0.02,0.13,-0.01,0.13
1.6536493301391602,-0.02,0.11,0.04,0.11
1.6641321182250977,-0.06,0.1,0.07,0.13
1.673781156539917,-0.04,0.12,0.04,0.13
1.6837053298950195,0.05,0.14,0.02,0.15
1.6939163208007812,0.12,0.12,0.01,0.17
1.7038941383361816,0.17,0.11,-0.02,0.2
1.7140092849731445,0.09,0.13,-0.06,0.16
1.7239642143249512,0.03,0.1,-0.08,0.13
1.734234094619751,0.08,0.09,-0.11,0.16
1.7441701889038086,0.12,0.11,-0.11,0.19
1.7546720504760742,0.1,0.12,-0.1,0.18
1.7642130851745605,0.01,0.14,-0.17,0.22
1.7744011878967285,0.12,0.16,-0.16,0.25
1.7842721939086914,0.19,0.14,-0.07,0.24
1.794851303100586,0.0,0.1,0.02,0.1
1.8045241832733154,-0.06,0.1,0.09,0.14
1.8147192001342773,0.01,0.08,0.17,0.18
1.8246002197265625,0.01,0.07,0.14,0.15
1.8351631164550781,-0.04,0.08,0.11,0.14
1.8447070121765137,0.08,0.08,0.11,0.15
1.8549931049346924,0.1,0.09,-0.02,0.13
1.8649570941925049,0.11,0.11,0.0,0.15
1.87617826461792,0.12,0.07,0.19,0.23
1.884688138961792,0.03,0.04,0.26,0.26
1.8954110145568848,0.0,0.04,0.32,0.32
1.905299186706543,-0.05,0.04,0.35,0.35
1.9192442893981934,-0.13,0.03,0.35,0.37
1.9263861179351807,-0.19,0.02,0.3,0.35
1.9354841709136963,-0.16,0.06,0.29,0.33
1.9454281330108643,-0.05,0.09,0.06,0.11
1.958296298980713,0.08,0.08,-0.08,0.13
1.9671311378479004,0.16,0.1,0.08,0.2
1.9768810272216797,0.0,0.11,0.13,0.17
2.0175042152404785,-0.1,0.11,0.14,0.2
2.0197551250457764,0.0,0.07,0.12,0.13
2.021144151687622,0.07,0.05,0.15,0.17
2.039281129837036,0.02,0.04,0.16,0.16
2.040894031524658,0.02,0.09,0.13,0.15
2.053079128265381,0.04,0.09,0.09,0.13
2.0554981231689453,-0.01,0.09,0.1,0.13
2.0687623023986816,-0.01,0.09,0.08,0.12
2.0710949897766113,0.01,0.08,0.08,0.11
2.0759150981903076,-0.03,0.08,0.08,0.11
2.106865167617798,-0.03,0.09,-0.02,0.09
2.1081480979919434,0.01,0.12,-0.07,0.13
2.1092491149902344,0.0,0.16,-0.03,0.16
2.115521192550659,0.0,0.17,-0.06,0.18
2.126258134841919,0.05,0.13,-0.06,0.15
2.136057138442993,0.08,0.11,0.02,0.13
2.146131992340088,-0.01,0.09,0.1,0.13
2.1565470695495605,-0.07,0.09,0.16,0.19
2.167166233062744,-0.08,0.07,0.18,0.2
2.17673921585083,-0.07,0.08,0.17,0.2
2.210405111312866,-0.02,0.1,0.13,0.16
2.211865186691284,0.06,0.1,0.05,0.12
2.212796211242676,0.06,0.09,0.04,0.11
2.2222931385040283,-0.05,0.09,-0.02,0.1
2.2264420986175537,-0.04,0.13,-0.22,0.25
2.2370471954345703,0.02,0.19,-0.22,0.29
2.246650218963623,0.08,0.23,-0.22,0.32
2.2577452659606934,0.16,0.21,0.02,0.26
2.267104148864746,0.01,0.12,0.41,0.42
2.277456283569336,-0.1,0.27,0.47,0.55
2.3100790977478027,0.06,0.35,0.44,0.56
2.3116061687469482,0.14,0.27,0.84,0.89
2.312702178955078,0.1,0.28,1.24,1.27
2.3211913108825684,0.28,0.27,1.08,1.14
2.327085018157959,1.01,0.67,-0.16,1.22
2.3375821113586426,1.85,1.13,-0.71,2.28
2.347696304321289,1.44,1.02,-0.1,1.76
2.358009099960327,1.13,0.85,-1.02,1.74
2.368232250213623,1.91,1.07,-2.29,3.16
2.3782742023468018,1.76,0.46,-1.15,2.15
2.412741184234619,0.33,0.11,0.86,0.92
2.414966106414795,-0.91,-0.97,2.49,2.82
2.416163206100464,-1.62,-1.15,1.4,2.43
2.420973300933838,-1.87,-0.44,1.08,2.2
2.4373021125793457,-2.03,-0.82,3.16,3.84
2.4390902519226074,-2.25,-2.02,2.9,4.18
2.4524641036987305,-1.0,-1.01,1.19,1.85
2.4582133293151855,-0.15,-1.55,2.18,2.67
2.47076416015625,-0.25,-1.29,1.62,2.08
2.4785521030426025,-0.26,-0.67,1.47,1.63
2.5128660202026367,-0.23,-0.74,1.51,1.69
2.5152392387390137,-0.26,-0.87,1.06,1.39
2.5163731575012207,0.01,-0.68,0.57,0.88
2.52107310295105,0.35,-0.1,0.06,0.36
2.5366110801696777,0.4,0.4,-0.05,0.56
2.5384480953216553,0.3,0.44,0.12,0.54
2.5520529747009277,0.16,0.27,0.01,0.31
2.5589771270751953,0.03,-0.03,-0.22,0.22
2.569991111755371,-0.06,-0.37,-0.22,0.43
2.5791921615600586,-0.15,-0.44,-0.12,0.48
2.6134510040283203,-0.27,-0.28,-0.18,0.42
2.6148011684417725,-0.47,-0.04,-0.4,0.61
2.6159682273864746,-0.55,0.07,-0.74,0.92
2.621072292327881,-0.68,0.09,-0.97,1.18
2.6290831565856934,-0.79,0.2,-0.77,1.12
2.638925075531006,-0.69,-0.16,-0.19,0.73
2.6492462158203125,-0.5,-0.73,0.07,0.88
2.659938097000122,-0.44,-0.46,-0.06,0.63
2.6706411838531494,0.1,-0.24,0.84,0.87
2.6804471015930176,0.75,-0.14,2.33,2.45
2.711970329284668,0.99,0.12,2.67,2.85
2.713447093963623,0.41,0.27,1.67,1.74
2.7145111560821533,-0.62,0.27,0.75,1.0
2.721323013305664,-1.05,-0.15,0.56,1.19
2.7291650772094727,-0.87,-0.33,-0.21,0.95
2.73968505859375,-0.31,0.03,-1.45,1.48
2.7505550384521484,0.5,0.93,-2.34,2.56
2.760155200958252,1.43,1.51,-2.36,3.14
2.770327091217041,1.85,0.92,-2.33,3.11
2.7803940773010254,1.33,0.21,-2.01,2.41
2.8127222061157227,0.88,0.0,-1.27,1.54
2.8142411708831787,0.96,-0.12,-0.94,1.34
2.815366268157959,0.59,-0.1,-1.26,1.39
2.8211193084716797,0.5,0.33,-2.09,2.17
2.8299779891967773,0.9,0.51,-2.08,2.32
2.8405470848083496,1.27,0.47,-1.59,2.08
2.8505940437316895,1.38,0.28,-1.26,1.88
2.860767126083374,0.86,0.1,-0.72,1.12
2.8709840774536133,0.41,0.04,-0.31,0.51
2.8813211917877197,0.4,0.14,-0.45,0.61
2.914440155029297,0.27,0.32,-0.39,0.57
2.9159650802612305,0.09,0.38,-0.49,0.62
2.9170491695404053,-0.03,0.38,-0.78,0.86
2.9211792945861816,-0.24,0.34,-0.67,0.78
2.9373459815979004,-0.18,0.24,-0.29,0.41
2.941054105758667,0.02,0.16,0.03,0.16
2.952958106994629,0.29,0.2,0.17,0.39
2.9618282318115234,0.78,0.02,0.39,0.87
2.971555233001709,0.92,-0.1,-0.03,0.92
2.9817352294921875,0.55,0.01,-0.56,0.78
3.015291213989258,-0.04,0.21,-0.58,0.61
3.016623020172119,-0.59,0.44,-0.06,0.73
3.0177271366119385,-0.4,0.4,0.8,0.97
3.0216281414031982,0.48,0.34,0.98,1.14
3.0311741828918457,1.2,0.36,1.0,1.6
3.0415921211242676,1.61,0.14,0.97,1.88
3.0518062114715576,1.65,-0.04,0.37,1.69
3.062002182006836,1.11,0.18,0.33,1.17
3.072031021118164,0.35,0.25,1.18,1.25
3.0823121070861816,-0.15,-0.13,1.85,1.86
3.117072105407715,0.05,-0.45,1.41,1.48
3.11859130859375,0.37,-0.86,0.94,1.32
3.1197052001953125,0.59,-1.09,0.45,1.31
3.1411781311035156,0.41,-0.71,-0.05,0.82
3.1430160999298096,-0.15,-0.16,0.15,0.26
3.1544532775878906,-0.65,0.33,-0.04,0.73
3.1570091247558594,-1.04,0.59,-0.19,1.21
3.1695632934570312,-1.34,0.51,0.3,1.46
3.172948122024536,-1.29,0.08,0.57,1.41
3.1864631175994873,-1.06,-0.57,0.4,1.26
3.2124080657958984,-0.76,-0.84,-0.05,1.13
3.2138800621032715,-0.27,-1.01,-0.49,1.15
3.2149951457977295,0.31,-1.63,-0.41,1.7
3.222325325012207,0.58,-1.73,0.0,1.82
3.232276201248169,0.37,-1.32,-0.38,1.42
3.2428271770477295,-0.36,0.0,-0.84,0.91
3.252915143966675,-0.98,0.82,-0.42,1.34
3.2631571292877197,-1.76,1.32,0.04,2.2
3.2732043266296387,-2.65,1.38,-0.04,2.98
3.2835450172424316,-3.12,1.2,0.3,3.35
3.318397045135498,-2.83,0.59,0.92,3.03
3.320519208908081,-1.93,0.19,0.88,2.12
3.3216609954833984,-1.11,0.09,0.0,1.11
3.33866810798645,-1.07,-0.35,0.24,1.15
3.3398921489715576,-1.87,-0.28,1.02,2.14
3.3553552627563477,-1.83,0.46,0.05,1.88
3.3576881885528564,-0.86,1.34,-0.69,1.73
3.369957208633423,0.3,0.98,-0.11,1.03
3.373664140701294,0.79,-0.28,0.32,0.89
3.387324094772339,1.07,-0.91,0.98,1.71
3.415431022644043,1.64,-0.63,0.74,1.9
3.4170870780944824,1.53,-0.06,0.32,1.56
3.4182231426239014,1.1,0.22,0.31,1.16
3.4237351417541504,0.9,0.11,0.23,0.93
3.4337010383605957,0.86,0.04,-0.16,0.87
3.4439892768859863,0.93,0.11,-0.73,1.18
3.454562187194824,0.88,0.26,-0.87,1.26
3.464670181274414,0.58,0.55,-1.24,1.47
3.474483013153076,-0.02,0.78,-1.62,1.79
3.4847280979156494,-0.36,0.41,-1.0,1.13
3.5204672813415527,-0.05,0.19,-1.05,1.06
3.5218520164489746,0.09,0.53,-1.32,1.42
3.522968292236328,0.04,0.41,-0.09,0.42
3.541491985321045,0.59,0.03,0.58,0.82
3.54331111907959,0.81,-0.18,1.06,1.34
3.554305076599121,0.21,-0.12,0.66,0.7
3.5567750930786133,-0.43,0.04,0.45,0.62
3.5695300102233887,-0.55,0.16,0.43,0.71
3.574944019317627,-0.34,0.09,-0.17,0.39
3.5871362686157227,-0.06,0.06,-0.32,0.33
3.617934226989746,-0.15,-0.05,0.22,0.27
3.6194190979003906,-0.31,-0.05,0.3,0.43
3.6204261779785156,-0.46,-0.05,0.64,0.78
3.6422951221466064,-0.95,-0.07,0.91,1.31
3.6441681385040283,-1.47,0.03,0.71,1.63
3.6542751789093018,-1.94,0.22,0.62,2.04
3.6560683250427246,-2.17,0.17,0.81,2.32
3.6699981689453125,-1.15,-0.02,0.64,1.31
3.6760501861572266,0.6,-0.25,0.22,0.68
3.6870012283325195,1.19,-0.19,-0.06,1.2
3.7158870697021484,0.57,-0.06,-0.02,0.57
3.717459201812744,-0.12,0.19,-0.22,0.31
3.718564987182617,-0.28,0.43,-0.17,0.54
3.7252261638641357,-0.26,0.26,-0.07,0.37
3.735373020172119,-0.19,0.1,-0.13,0.25
3.7457520961761475,-0.09,0.05,-0.06,0.11
3.755721092224121,-0.11,0.11,0.02,0.15
3.766371250152588,-0.18,0.07,-0.07,0.2
3.776364326477051,0.11,-0.08,-0.15,0.2
3.7865231037139893,0.65,-0.21,0.07,0.68
3.821043014526367,0.73,-0.33,0.18,0.82
3.8223531246185303,0.28,0.14,-0.07,0.32
3.8234410285949707,-0.77,0.23,0.35,0.87
3.840900182723999,-1.4,0.58,-0.17,1.52
3.8417351245880127,-1.62,0.84,-0.44,1.87
3.8549790382385254,-1.69,0.5,-0.6,1.86
3.857706069946289,-0.99,0.27,-0.19,1.04
3.870464324951172,-0.5,0.09,0.49,0.7
3.876749038696289,-0.77,0.19,1.1,1.35
3.8873252868652344,-1.25,0.12,1.24,1.76
3.920849323272705,-1.14,0.03,1.11,1.59
3.9224162101745605,-0.37,0.03,1.27,1.32
3.923466205596924,0.09,0.37,0.82,0.9
3.9410510063171387,-0.29,0.72,0.2,0.8
3.941920280456543,-0.82,0.84,-0.48,1.26
3.955440044403076,-0.58,1.0,-1.09,1.58
3.9579830169677734,0.18,1.2,-1.16,1.67
3.969902992248535,0.44,1.26,-0.99,1.66
3.9776101112365723,0.0,1.33,-1.07,1.7
3.987558126449585,-0.36,1.86,-0.97,2.12
4.022142171859741,-0.67,2.0,-0.45,2.15
4.02365517616272,-1.01,1.86,-0.17,2.12
4.0247461795806885,-1.34,1.77,0.16,2.22
4.041067123413086,-1.53,1.83,0.24,2.39
4.041823148727417,-1.72,1.78,0.1,2.47
4.054902076721191,-2.02,1.8,-0.08,2.7
4.057959079742432,-2.38,1.95,-0.16,3.08
4.069930076599121,-2.67,2.02,-0.23,3.35
4.078009128570557,-2.58,2.14,0.12,3.35
4.0882391929626465,-2.43,2.43,0.38,3.45
4.12191104888916,-2.63,2.67,0.49,3.77
4.123399257659912,-3.17,2.7,0.49,4.19
4.124442100524902,-3.68,2.61,0.0,4.51
4.14191198348999,-3.94,2.64,-0.88,4.82
4.143763065338135,-4.0,3.42,-1.59,5.49
4.152615070343018,-4.08,4.57,-1.04,6.21
4.157957077026367,-5.16,4.84,-0.12,7.07
4.169776201248169,-7.37,4.42,0.64,8.61
4.1784281730651855,-9.57,5.11,1.07,10.9
4.188864231109619,-10.68,6.41,1.56,12.55
4.219102144241333,-11.11,7.64,2.05,13.63
4.220691204071045,-11.14,9.42,2.29,14.76
4.221789121627808,-9.49,11.43,1.93,14.98
4.24256706237793,-5.82,13.02,1.26,14.31
4.244579315185547,-0.9,12.26,0.98,12.33
4.258035182952881,0.0,9.92,4.06,10.71
4.260617256164551,-4.88,8.05,5.48,10.89
4.270561218261719,-8.99,5.65,3.45,11.16
4.279356002807617,-10.31,2.82,2.78,11.04
4.289478302001953,-10.18,0.89,2.48,10.51
4.320341110229492,-8.78,1.22,3.56,9.55
4.32197904586792,-5.68,2.83,4.22,7.62
4.323106288909912,1.92,3.23,0.29,3.76
4.340964317321777,10.35,-1.18,-0.39,10.42
4.34273624420166,8.08,-3.77,2.28,9.2
4.3545122146606445,-3.76,-3.0,2.39,5.37
4.359640121459961,-9.88,-4.53,1.45,10.96
4.370735168457031,-13.26,-5.81,1.13,14.52
4.380248069763184,-15.86,-4.74,1.11,16.59
4.390696048736572,-14.38,-2.98,0.7,14.7
4.422510147094727,-7.89,-3.0,0.48,8.45
4.424744129180908,-4.31,-2.98,-0.4,5.25
4.426498174667358,-3.07,-2.93,-1.43,4.47
4.440194129943848,-2.81,-3.05,-1.78,4.51
4.441971302032471,-3.38,-3.04,-1.94,4.94
4.454459190368652,-3.97,-2.77,-2.17,5.3
4.460100173950195,-3.79,-2.27,-2.24,4.95
4.471346139907837,-3.07,-1.63,-1.71,3.87
4.480642318725586,-2.21,-0.9,-0.95,2.56
4.490663051605225,-1.45,0.04,-0.91,1.71
4.523097991943359,-0.54,0.76,-1.6,1.85
4.52468729019165,0.65,1.14,-2.56,2.87
4.525854110717773,1.97,1.48,-3.34,4.15
4.540322303771973,3.16,1.66,-3.34,4.88
4.541975021362305,3.81,1.67,-2.69,4.95
4.554346084594727,3.67,1.85,-2.16,4.64
4.561036109924316,3.31,2.01,-1.75,4.24
4.570893287658691,3.12,2.53,-1.46,4.27
4.581240177154541,3.17,3.53,-1.13,4.87
4.59144401550293,3.55,4.86,-0.76,6.06
4.622453212738037,4.22,5.98,-0.13,7.32
4.624017238616943,5.22,6.8,0.23,8.57
4.62511420249939,6.44,7.29,0.6,9.74
4.641537189483643,7.15,7.31,1.17,10.29
4.6423962116241455,7.29,6.85,2.03,10.2
4.655453205108643,7.38,5.93,2.78,9.86
4.661408185958862,6.14,4.5,3.04,8.19
4.671764135360718,5.08,3.69,3.12,7.01
4.682009220123291,5.0,3.32,2.22,6.39
4.692337989807129,6.91,3.09,0.99,7.63
4.726838111877441,9.78,2.78,0.64,10.18
4.7288312911987305,11.83,2.11,0.39,12.02
4.729947090148926,12.75,1.73,-0.41,12.87
4.73897910118103,13.55,1.9,-1.83,13.8
4.741568088531494,13.93,2.17,-2.61,14.33
4.754792213439941,13.39,2.3,-2.26,13.77
4.761840105056763,12.3,2.9,-2.69,12.92
4.772656202316284,10.56,1.65,-3.77,11.33
4.782281160354614,6.07,0.7,-7.44,9.62
4.792659282684326,-3.81,1.62,-11.46,12.18
4.826385974884033,-15.5,7.51,2.18,17.36
4.827975273132324,-17.65,13.81,6.62,23.36
4.829177141189575,-5.41,9.85,1.35,11.31
4.840349197387695,3.64,13.91,11.17,18.2
4.841788291931152,7.33,10.06,12.4,17.56
4.855077266693115,15.4,5.43,-14.25,21.67
4.862246036529541,16.58,-8.26,-0.45,18.52
4.872857093811035,2.66,-10.27,15.83,19.05
4.883028030395508,-3.29,-5.13,6.66,9.02
4.893423080444336,-1.16,-1.57,-8.84,9.05
4.922712326049805,5.05,1.06,-7.34,8.97
4.924443244934082,8.58,1.6,-0.77,8.76
4.925552129745483,7.52,2.58,-2.01,8.2
4.941799163818359,3.49,0.65,-1.99,4.06
4.943665981292725,-0.41,-0.68,-0.63,1.01
4.953831195831299,-1.84,-0.21,0.56,1.93
4.963235139846802,-1.04,-0.09,1.29,1.65
4.973506212234497,0.84,-0.45,1.94,2.16
4.984000205993652,1.78,-0.68,0.91,2.11
4.994135141372681,1.5,-0.51,0.04,1.58
5.027414321899414,0.66,-0.12,-0.02,0.67
5.029685020446777,-0.52,0.09,-0.01,0.52
5.0308122634887695,-1.41,0.14,-0.38,1.46
5.038828134536743,-1.74,0.22,-0.47,1.81
5.043307304382324,-1.91,0.31,-0.15,1.94
5.0548741817474365,-2.08,0.29,0.28,2.11
5.06400203704834,-2.09,0.13,0.51,2.15
5.073945045471191,-1.78,0.02,0.55,1.86
5.084379196166992,-1.32,-0.07,0.61,1.45
5.094308137893677,-0.94,-0.13,0.42,1.03
5.128295183181763,-0.73,0.1,0.53,0.9
5.1305341720581055,-0.43,0.83,0.31,0.98
5.131880283355713,-0.05,0.95,-0.16,0.96
5.13886833190918,-0.03,0.28,-0.33,0.43
5.1441380977630615,-0.5,-0.09,-0.14,0.52
5.154625177383423,-1.04,0.1,-0.03,1.04
5.164100170135498,-1.25,0.39,0.07,1.31
5.174505233764648,-1.14,0.51,0.33,1.29
5.185128211975098,-0.83,0.57,0.75,1.25
5.195245265960693,-0.68,0.71,1.08,1.46
5.225953102111816,-0.95,0.79,0.97,1.57
5.227460145950317,-1.33,0.88,0.0,1.59
5.228567123413086,-1.42,1.37,-0.32,1.99
5.2389302253723145,-0.96,1.86,-0.92,2.28
5.244222164154053,-0.61,1.77,-1.38,2.32
5.255366325378418,-0.81,1.66,-1.3,2.25
5.265021324157715,-1.32,1.67,-0.83,2.28
5.275943279266357,-1.7,1.8,0.0,2.47
5.285429000854492,-2.17,2.19,1.06,3.26
5.295549154281616,-2.91,2.68,1.84,4.36
5.326773166656494,-3.67,3.06,2.21,5.26
5.328320026397705,-4.24,3.39,2.05,5.8
5.329452037811279,-4.57,3.77,1.38,6.08
5.338864326477051,-4.86,4.14,0.51,6.4
5.344807147979736,-5.38,4.36,-0.37,6.93
5.35576319694519,-5.92,4.34,-1.13,7.42
5.365755081176758,-6.38,4.65,-1.53,8.04
5.375833988189697,-7.38,5.19,-1.77,9.19
5.386232137680054,-8.58,5.74,-1.71,10.46
5.396459102630615,-9.53,6.87,-1.15,11.8
5.42925500869751,-10.98,7.75,-0.1,13.43
5.430812120437622,-10.73,7.62,0.8,13.18
5.431978225708008,-11.76,8.02,1.46,14.3
5.439140319824219,-12.14,9.54,1.71,15.53
5.445430278778076,-6.29,10.72,3.25,12.84
5.455953121185303,-1.15,11.58,5.72,12.96
5.465823173522949,-1.41,11.98,7.98,14.46
5.476585149765015,-3.94,9.78,7.15,12.73
5.486792087554932,-4.71,5.97,4.87,9.03
5.4966912269592285,-5.89,3.63,4.88,8.46
5.532695293426514,-7.2,1.98,5.12,9.05
5.534321308135986,-6.24,1.98,7.89,10.25
5.535431146621704,-1.61,3.47,7.46,8.38
5.5392491817474365,5.26,-0.3,1.99,5.63
5.546040058135986,8.15,-4.9,0.68,9.53
5.556609153747559,-0.63,-4.63,2.12,5.13
5.566832065582275,-9.08,-3.7,-0.47,9.81
5.577153205871582,-12.96,-4.79,-3.38,14.22
5.587168216705322,-16.08,-4.41,-2.88,16.92
5.597339153289795,-16.04,-3.03,-1.14,16.36
5.630191326141357,-9.01,-3.68,-0.29,9.73
5.631750106811523,-2.85,-4.56,-0.47,5.39
5.632871150970459,-0.75,-4.82,-1.38,5.06
5.639291286468506,-0.56,-5.07,-1.86,5.42
5.647221088409424,-2.07,-5.08,-1.8,5.77
5.657153129577637,-3.45,-4.83,-1.58,6.14
5.667718172073364,-3.54,-4.46,-1.57,5.9
5.677720069885254,-3.12,-3.89,-1.4,5.17
5.688155174255371,-2.97,-3.02,-1.04,4.36
5.697977066040039,-3.02,-2.03,0.0,3.63
5.730551242828369,-3.0,-1.16,1.69,3.63
5.732434272766113,-2.72,-0.19,3.19,4.19
5.733636140823364,-1.94,0.7,3.26,3.85
5.739321231842041,-0.38,1.58,1.81,2.43
5.747718095779419,1.8,2.73,-0.19,3.27
5.757700204849243,4.06,3.82,-1.62,5.8
5.76834511756897,5.64,4.72,-2.08,7.64
5.778508186340332,6.04,5.15,-2.09,8.2
5.788456201553345,5.52,5.23,-1.93,7.84
5.798431158065796,4.96,5.53,-1.29,7.53
5.8324360847473145,4.55,6.09,-0.73,7.63
5.834571123123169,4.08,6.46,0.02,7.64
5.835669994354248,3.86,7.37,1.13,8.39
5.8397603034973145,3.7,7.87,1.98,8.91
5.848293304443359,3.55,7.51,2.7,8.73
5.858847141265869,3.92,6.54,3.0,8.19
5.868465185165405,4.73,5.26,2.56,7.52
5.878890037536621,5.69,4.21,1.77,7.29
5.889065265655518,7.39,3.58,0.02,8.21
5.89913010597229,10.09,3.51,-2.08,10.88
5.9324140548706055,12.55,2.56,-1.64,12.91
5.934063196182251,12.58,1.35,0.01,12.65
5.9352030754089355,10.46,1.57,0.46,10.58
5.939356327056885,9.23,1.89,-0.29,9.42
5.955154180526733,10.15,1.89,-0.88,10.36
5.958916187286377,11.95,1.9,-1.06,12.14
5.97057318687439,13.3,1.57,-1.16,13.44
5.979382038116455,12.59,1.34,-2.08,12.83
5.989899158477783,7.98,1.66,-2.18,8.43
5.999682188034058,4.0,2.34,-4.05,6.15
6.033557176589966,-1.6,2.72,-13.53,13.89
6.035037994384766,-12.7,11.81,-9.82,19.92
6.036196231842041,-15.5,19.12,1.34,24.64
6.0394251346588135,-1.33,7.24,2.29,7.7
6.049020290374756,5.04,1.44,1.32,5.4
6.059524059295654,6.31,8.69,0.91,10.77
6.0699462890625,10.43,9.34,10.49,17.49
6.080150127410889,15.08,1.06,7.01,16.66
6.090097188949585,15.18,-5.77,3.41,16.59
6.100298166275024,3.12,-6.03,6.65,9.5
6.130995273590088,-2.07,-2.67,1.91,3.88
6.132579326629639,-2.04,0.61,-4.96,5.39
6.133758068084717,0.96,2.03,-8.51,8.8
6.139722108840942,4.63,2.51,-5.83,7.85
6.149845123291016,6.7,2.09,-3.39,7.79
6.1601691246032715,6.49,-0.15,-1.62,6.69
6.170262098312378,3.63,-1.49,0.97,4.04
6.180680274963379,-0.05,-1.44,3.3,3.6
6.190881252288818,-3.06,-0.98,4.32,5.38
6.2016870975494385,-4.09,-0.16,3.23,5.21
6.237511157989502,-2.23,0.38,0.53,2.32
6.239065170288086,0.56,0.36,-1.22,1.38
6.240277290344238,1.74,0.11,-1.55,2.33
6.2590012550354,1.16,-0.11,-1.04,1.56
6.260901212692261,-0.33,-0.23,-0.24,0.46
6.271907329559326,-1.94,-0.14,0.45,1.99
6.273697137832642,-2.74,-0.1,1.15,2.97
6.290757179260254,-2.56,-0.15,1.3,2.87
6.29344916343689,-1.85,-0.11,0.9,2.06
6.305053234100342,-0.98,-0.14,0.52,1.11
6.330522060394287,-0.22,-0.22,0.02,0.31
6.3321311473846436,0.2,-0.25,-0.15,0.35
6.33328104019165,0.03,-0.12,-0.16,0.2
6.340979099273682,-0.23,0.2,-0.38,0.48
6.351016998291016,-0.54,0.19,0.04,0.57
6.361330986022949,-0.96,0.2,0.43,1.07
6.372173309326172,-1.02,0.13,0.4,1.1
6.381941318511963,-0.88,0.01,0.39,0.96
6.391849994659424,-0.66,-0.03,0.18,0.68
6.402383327484131,-0.56,-0.01,0.02,0.56
6.436700105667114,-0.52,0.04,0.22,0.56
6.438157081604004,-0.69,-0.01,0.28,0.74
6.439349174499512,-0.65,-0.03,0.35,0.73
6.4593729972839355,-0.56,0.04,0.34,0.65
6.461236000061035,-0.4,0.21,0.51,0.68
6.473704099655151,-0.28,0.53,0.7,0.92
6.475447177886963,-0.59,0.65,0.68,1.11
6.487583160400391,-1.14,0.83,0.68,1.56
6.492951154708862,-1.45,1.05,0.6,1.88
6.504777193069458,-1.34,1.31,0.31,1.89
6.534872055053711,-0.94,1.64,0.12,1.89
6.5364789962768555,-0.68,2.03,-0.4,2.17
6.537621021270752,-0.81,2.06,-0.56,2.28
6.542112112045288,-1.32,2.11,-0.29,2.5
6.552366256713867,-1.66,2.7,0.24,3.17
6.562815189361572,-1.92,3.28,0.73,3.87
6.572911262512207,-2.46,3.7,0.89,4.53
6.583559036254883,-3.23,4.15,0.74,5.31
6.593315124511719,-3.97,4.66,0.42,6.13
6.603638172149658,-4.67,4.78,0.01,6.68
6.63538932800293,-5.37,4.9,-0.54,7.28
6.636806011199951,-6.07,4.99,-1.09,7.93
6.6379711627960205,-6.89,4.9,-1.45,8.57
6.659617185592651,-7.63,5.09,-1.82,9.35
6.66138219833374,-8.7,5.62,-2.22,10.59
6.672386169433594,-9.72,6.79,-2.09,12.03
6.674219131469727,-10.49,8.02,-0.79,13.22
6.688014030456543,-9.03,7.6,0.91,11.83
6.693558216094971,-11.86,7.24,1.22,13.94
6.705045223236084,-13.47,7.93,1.52,15.7
6.73818826675415,-9.66,8.66,2.18,13.15
6.7397332191467285,-3.2,11.0,3.18,11.88
6.740872144699097,0.06,13.15,6.65,14.73
6.759134292602539,-2.54,10.91,9.11,14.43
6.760496139526367,-6.16,6.28,6.86,11.15
6.772712230682373,-8.03,2.74,4.74,9.71
6.774559020996094,-8.58,0.86,3.87,9.45
6.787926197052002,-7.87,0.53,4.09,8.88
6.794535160064697,-5.07,1.26,5.59,7.65
6.805142164230347,0.43,2.38,2.19,3.26
6.834984302520752,7.41,-0.69,-1.37,7.56
6.836595058441162,8.28,-3.61,0.87,9.07
6.837743282318115,-0.23,-3.0,2.21,3.73
6.843935012817383,-6.05,-3.79,2.17,7.46
6.854398250579834,-9.58,-5.91,1.48,11.35
6.864204168319702,-12.8,-6.66,1.44,14.5
6.874759197235107,-13.94,-5.32,2.16,15.07
6.885045051574707,-9.82,-4.11,3.05,11.07
6.895096302032471,-4.47,-3.68,2.92,6.48
6.905283212661743,-2.74,-2.9,1.72,4.34
6.9375011920928955,-2.52,-2.53,0.9,3.68
6.938868999481201,-3.44,-2.54,0.84,4.35
6.93998908996582,-4.69,-2.48,1.06,5.41
6.960007190704346,-5.34,-2.16,1.03,5.85
6.9617791175842285,-5.12,-1.62,0.8,5.42
6.972084999084473,-4.37,-1.03,1.03,4.6
6.975117206573486,-3.37,-0.53,1.25,3.63
6.9880311489105225,-2.24,-0.01,1.06,2.47
6.9957122802734375,-1.06,0.4,0.36,1.18
7.0057761669158936,0.2,1.06,-0.56,1.21
7.039611101150513,1.91,1.72,-1.86,3.17
7.041185140609741,3.85,2.25,-3.15,5.45
7.042322158813477,5.45,2.66,-3.75,7.13
7.059266090393066,6.16,3.02,-3.89,7.88
7.059932231903076,5.72,3.01,-3.72,7.45
7.072521209716797,4.87,3.31,-2.9,6.56
7.075770139694214,4.17,4.24,-2.09,6.3
7.088158130645752,3.57,5.0,-0.85,6.2
7.096171140670776,3.66,5.88,0.76,6.96
7.106410026550293,4.57,6.56,2.1,8.26
7.1387810707092285,6.26,6.85,2.74,9.67
7.14030122756958,7.85,6.63,2.53,10.58
7.141499042510986,8.35,6.06,1.81,10.47
7.1590681076049805,7.41,5.38,1.61,9.29
7.15994930267334,5.11,4.73,2.8,7.5
7.173269271850586,2.41,4.03,4.09,6.22
7.176406145095825,0.76,3.72,2.91,4.78
7.188345193862915,2.23,3.75,-0.13,4.36
7.1969780921936035,6.6,2.83,-0.73,7.21
7.2068963050842285,10.52,1.95,-0.42,10.7
7.217067241668701,12.85,1.65,-1.74,13.07
7.227497100830078,13.96,1.12,-4.03,14.57
7.265252113342285,14.48,0.71,-5.17,15.39
7.266800165176392,14.22,0.66,-4.72,14.99
7.267998218536377,13.76,0.85,-3.8,14.3
7.273175239562988,11.36,1.6,-3.82,12.09
7.276451110839844,7.58,1.76,-3.74,8.63
7.289338111877441,4.66,4.01,-5.04,7.94
7.296848297119141,0.38,4.31,-11.18,11.98
7.30842399597168,-9.88,10.72,-5.86,15.71
7.3176281452178955,-13.82,16.91,3.67,22.14
7.327938079833984,-3.03,6.67,1.46,7.47
7.361498117446899,4.07,8.58,1.32,9.58
7.363125324249268,6.75,13.65,10.97,18.76
7.364315986633301,13.39,7.24,-0.22,15.22
7.3750011920928955,16.18,-2.99,-3.96,16.92
7.377283096313477,4.28,-9.33,6.35,12.07
7.388049125671387,-1.89,-7.61,10.5,13.1
7.397489070892334,-1.76,-2.52,5.76,6.52
7.407828330993652,0.87,0.9,-3.3,3.52
7.418600082397461,4.14,2.91,-8.49,9.88
7.428217172622681,6.5,3.59,-5.99,9.54
7.460376262664795,6.09,1.87,-2.2,6.73
7.46197509765625,3.49,-0.75,-1.1,3.73
7.463126182556152,1.1,-1.68,-0.54,2.07
7.473355293273926,-0.28,-1.12,0.67,1.33
7.477831125259399,-1.06,-0.18,2.43,2.65
7.489565134048462,-1.48,0.23,3.52,3.82
7.498037099838257,-1.52,-0.19,2.84,3.22
7.509141206741333,-1.36,-0.4,0.63,1.55
7.518832206726074,-1.04,-0.04,-1.05,1.47
7.529040098190308,-0.54,0.32,-1.44,1.57
7.55993914604187,-0.5,0.21,-1.15,1.27
7.561474323272705,-1.12,0.04,-0.69,1.31
7.56261420249939,-1.85,0.05,0.16,1.85
7.575638294219971,-2.16,-0.08,1.14,2.44
7.578476190567017,-2.47,-0.1,1.27,2.77
7.589395999908447,-1.62,-0.15,0.84,1.83
7.599127292633057,-0.52,-0.08,0.14,0.54
7.609097003936768,0.26,0.09,-0.38,0.46
7.619818210601807,0.51,0.21,-0.53,0.76
7.62949800491333,0.22,0.17,-0.21,0.34
7.664890289306641,0.0,0.12,0.03,0.12
7.666337013244629,-0.35,0.02,0.27,0.44
7.667479991912842,-0.8,-0.1,0.23,0.83
7.673212051391602,-1.14,0.03,-0.03,1.14
7.6787872314453125,-1.26,0.12,0.32,1.3
7.689451217651367,-1.3,0.0,0.73,1.49
7.6993632316589355,-1.29,0.09,1.01,1.64
7.70956015586853,-1.4,0.34,1.3,1.94
7.720290184020996,-1.85,0.65,1.11,2.25
7.730053186416626,-1.92,0.86,0.9,2.28
7.762824058532715,-1.8,0.85,0.37,2.02
7.7644031047821045,-1.26,0.82,0.14,1.5
7.765536308288574,-0.31,0.86,0.06,0.91
7.773377180099487,0.24,1.22,-0.95,1.56
7.779691219329834,0.06,1.83,-0.92,2.04
7.790021181106567,-0.42,2.08,-0.89,2.3
7.800229072570801,-0.73,2.24,-0.5,2.4
7.810366153717041,-1.08,2.31,-0.13,2.55
7.820749282836914,-1.64,2.36,0.37,2.89
7.830794095993042,-2.25,2.58,0.76,3.5
7.864257097244263,-2.91,3.1,1.01,4.37
7.865832328796387,-3.72,3.63,0.97,5.28
7.866980075836182,-4.19,4.12,0.7,5.91
7.873732089996338,-4.55,4.51,0.17,6.4
7.879961013793945,-5.21,4.62,-0.24,6.96
7.89049220085144,-5.97,4.75,-0.65,7.65
7.900787115097046,-6.69,5.19,-1.06,8.53
7.91096830368042,-7.68,6.12,-1.24,9.89
7.9211461544036865,-9.47,7.07,-1.0,11.86
7.9314961433410645,-9.64,7.45,-0.77,12.2
7.965917110443115,-10.18,7.59,-0.8,12.72
7.967496156692505,-13.43,8.73,-0.9,16.04
7.968662261962891,-14.54,9.03,0.3,17.11
7.97374415397644,-12.37,9.25,1.46,15.51
7.980589151382446,-5.93,10.11,3.93,12.36
7.991056203842163,0.4,11.12,4.37,11.95
8.001124143600464,1.88,9.99,6.19,11.9
8.012015104293823,-0.47,6.44,5.94,8.77
8.02181100845337,-3.35,3.07,4.93,6.7
8.031745195388794,-6.12,0.76,4.22,7.47
8.064908981323242,-7.88,-0.45,3.55,8.65
8.066451072692871,-7.24,-0.54,5.41,9.05
8.067574977874756,-2.63,1.16,4.08,4.99
8.073631286621094,5.31,-0.02,-1.13,5.42
8.081593036651611,8.76,-3.73,0.23,9.52
8.091748237609863,0.25,-3.67,2.54,4.47
8.101731300354004,-7.02,-3.4,2.79,8.28
8.112439155578613,-10.04,-5.29,2.09,11.53
8.122311115264893,-12.61,-6.6,0.78,14.25
8.132893085479736,-14.06,-5.62,-0.08,15.14
8.166601181030273,-11.54,-3.86,-0.21,12.17
8.168192148208618,-6.25,-3.53,-0.23,7.18
8.169357299804688,-4.11,-2.9,-0.57,5.06
8.173657178878784,-2.95,-2.55,-0.84,3.98
8.188968181610107,-2.32,-2.94,-1.1,3.9
8.192540168762207,-2.87,-3.24,-1.16,4.48
8.205177307128906,-3.65,-3.1,-1.14,4.92
8.21272611618042,-4.11,-2.71,-1.38,5.11
8.222588062286377,-4.33,-1.82,-1.46,4.91
8.233236312866211,-4.03,-0.72,-0.89,4.18
8.267740249633789,-3.07,0.26,0.06,3.08
8.269137144088745,-1.93,1.13,0.45,2.28
8.270267009735107,-0.69,1.68,0.12,1.82
8.273965120315552,0.62,2.33,-0.43,2.44
8.282658100128174,2.09,3.51,-1.43,4.32
8.292641162872314,3.94,4.64,-2.83,6.71
8.302821159362793,5.48,4.79,-3.58,8.11
8.313775062561035,6.35,4.67,-2.42,8.24
8.323975086212158,6.4,4.36,-1.23,7.84
8.3336341381073,5.85,4.42,-0.48,7.34
8.366384029388428,4.98,4.88,-0.19,6.97
8.367990016937256,4.37,5.11,0.01,6.72
8.369178295135498,4.64,5.05,0.18,6.86
8.373866081237793,5.53,5.2,0.33,7.59
8.389175176620483,6.27,5.54,0.31,8.37
8.39311408996582,6.84,5.45,-0.17,8.74
8.404919147491455,7.7,4.65,-0.53,9.01
8.413763999938965,8.43,3.7,-0.28,9.21
8.423803329467773,8.43,3.0,0.57,8.96
8.43438720703125,7.93,2.47,1.26,8.4
8.467434167861938,7.59,2.16,1.03,7.95
8.468801975250244,8.35,1.99,0.09,8.58
8.469935178756714,10.31,1.73,-0.53,10.46
8.474099159240723,11.83,1.15,-0.82,11.91
8.489383220672607,12.12,0.62,-1.07,12.18
8.494018077850342,12.06,0.63,-1.95,12.23
8.505256175994873,12.21,0.82,-2.84,12.56
8.517259120941162,10.36,2.48,-3.0,11.06
8.524267196655273,7.86,3.3,-2.26,8.81
8.53488302230835,3.87,2.17,-7.41,8.63
8.563870191574097,-8.11,4.87,-6.28,11.35
8.565287113189697,-18.46,15.33,2.99,24.18
8.5664541721344,-12.18,16.59,3.54,20.88
8.57437515258789,3.06,4.08,2.32,5.6
8.584304094314575,5.96,4.5,2.22,7.79
8.594946146011353,8.62,6.94,4.32,11.87
8.605232238769531,12.18,0.69,6.72,13.92
8.615350246429443,15.78,-4.05,0.49,16.29
8.62529706954956,11.53,-4.01,2.82,12.52
8.635800123214722,1.74,-2.37,3.72,4.74
8.670807123184204,-1.25,0.01,0.55,1.36
8.672399044036865,-1.45,1.55,-5.93,6.29
8.673617124557495,0.93,2.67,-8.62,9.07
8.692913055419922,4.22,2.14,-4.44,6.48
8.693755149841309,5.6,0.6,-1.57,5.84
8.707581996917725,4.6,-0.95,-0.84,4.77
8.710133075714111,2.16,-1.14,1.02,2.64
8.722180128097534,-0.47,-0.84,3.19,3.33
8.726036071777344,-2.36,-0.48,3.72,4.43
8.739280223846436,-2.72,-0.1,2.58,3.75
8.770767211914062,-1.34,0.01,0.59,1.46
8.77231216430664,0.61,-0.04,-1.03,1.19
8.773458003997803,1.43,0.02,-1.33,1.95
8.793814182281494,0.85,-0.08,-0.53,1.0
8.795595169067383,-0.57,-0.16,0.35,0.68
8.80672025680542,-2.01,-0.03,0.91,2.2
8.808448314666748,-2.66,0.04,1.19,2.91
8.822513103485107,-2.44,-0.01,1.02,2.64
8.826229095458984,-1.69,-0.01,0.81,1.87
8.83937406539917,-0.83,-0.05,0.53,0.98
8.86669921875,-0.36,0.0,0.27,0.45
8.868220329284668,-0.17,0.08,0.21,0.28
8.869420051574707,-0.43,0.14,0.18,0.48
8.876235008239746,-0.62,0.36,0.22,0.74
8.889633178710938,-0.57,0.3,0.22,0.68
8.896449089050293,-0.43,-0.01,0.21,0.47
8.906634330749512,-0.29,-0.12,0.35,0.47
8.917137145996094,-0.51,-0.18,0.47,0.71
8.927114009857178,-0.87,-0.27,0.65,1.11
8.937355041503906,-0.94,0.0,0.64,1.13
8.972117185592651,-0.94,0.46,0.41,1.12
8.973447322845459,-0.97,0.73,0.25,1.23
8.974594116210938,-1.03,0.63,0.36,1.25
8.993922233581543,-0.95,0.66,0.15,1.16
8.995729207992554,-0.66,0.97,0.0,1.17
9.006278991699219,-0.68,0.93,-0.22,1.17
9.007893085479736,-0.8,1.17,-1.14,1.81
9.022339105606079,-0.89,1.52,-0.92,1.98
9.027838230133057,-0.98,1.49,-0.76,1.93
9.039745330810547,-0.9,1.56,-0.29,1.82
9.07213306427002,-1.05,1.6,0.19,1.92
9.073690176010132,-1.4,1.73,0.58,2.29
9.074831008911133,-1.87,2.08,0.87,2.92
9.093403100967407,-2.32,2.76,0.93,3.72
9.094551086425781,-2.99,3.41,1.0,4.64
9.107611179351807,-3.92,4.04,1.13,5.74
9.110121250152588,-4.66,4.51,1.21,6.59
9.122379302978516,-5.24,4.73,0.87,7.11
9.12831711769104,-5.77,4.92,0.17,7.58
9.139639139175415,-6.42,4.82,-0.45,8.04
9.175162315368652,-6.99,4.62,-1.01,8.43
9.176767110824585,-7.63,4.29,-1.12,8.82
9.177955150604248,-8.55,4.14,-1.65,9.64
9.193589210510254,-9.24,5.14,-1.98,10.75
9.19486117362976,-9.56,7.03,-0.83,11.89
9.207235097885132,-9.59,8.2,0.72,12.63
9.20909309387207,-13.5,9.57,1.77,16.64
9.2223961353302,-15.72,11.92,2.56,19.89
9.228771209716797,-11.79,13.75,2.32,18.26
9.240437030792236,-3.51,13.38,3.4,14.24
9.270788192749023,-1.1,12.24,6.49,13.89
9.272334098815918,-4.82,10.3,6.9,13.3
9.273473262786865,-8.13,6.45,5.05,11.54
9.293420314788818,-9.47,2.63,4.42,10.77
9.294307231903076,-9.88,0.22,3.71,10.55
9.308505058288574,-9.19,0.01,4.4,10.18
9.311020135879517,-5.7,1.97,6.16,8.62
9.322421073913574,1.64,2.36,1.49,3.23
9.329346179962158,11.14,-1.86,-1.81,11.43
9.342358112335205,12.85,-5.4,1.07,13.97
9.375200271606445,1.86,-4.35,2.92,5.55
9.376809120178223,-5.71,-4.48,3.01,7.85
9.377963066101074,-9.42,-7.05,1.36,11.84
9.394272327423096,-13.25,-8.17,0.35,15.57
9.39611530303955,-15.23,-6.09,0.47,16.4
9.407852172851562,-12.68,-3.63,0.83,13.21
9.40970516204834,-6.08,-3.73,1.05,7.2
9.42259931564331,-3.13,-3.57,0.42,4.76
9.42994213104248,-2.08,-3.45,-0.4,4.04
9.44026803970337,-1.66,-3.68,-0.9,4.13
9.472562313079834,-1.87,-3.83,-0.96,4.36
9.474005222320557,-1.87,-3.65,-0.89,4.19
9.475050210952759,-1.62,-2.81,-1.16,3.44
9.494102001190186,-1.33,-1.55,-1.42,2.48
9.495723247528076,-0.49,-0.3,-1.18,1.31
9.51099419593811,0.79,0.59,-0.26,1.01
9.516221046447754,1.64,0.97,0.74,2.04
9.522249221801758,1.91,0.94,1.24,2.46
9.530664205551147,2.2,1.05,1.07,2.66
9.540710210800171,2.7,1.67,0.78,3.26
9.569508075714111,3.13,2.65,0.48,4.12
9.570926189422607,3.55,3.85,0.47,5.25
9.572071075439453,3.64,4.56,0.66,5.87
9.58066701889038,3.52,5.21,0.87,6.34
9.590593099594116,3.22,5.98,1.0,6.86
9.60089111328125,2.89,7.08,0.64,7.67
9.610599994659424,2.93,7.88,0.28,8.41
9.621406078338623,3.26,8.22,0.79,8.87
9.631175994873047,3.5,7.49,1.65,8.43
9.641667127609253,3.86,6.55,1.8,7.81
9.67719030380249,4.43,5.85,1.12,7.42
9.678552150726318,5.11,4.58,0.5,6.88
9.679684162139893,6.49,3.42,-0.38,7.34
9.693871021270752,8.81,3.04,-2.13,9.56
9.695358276367188,10.62,2.48,-2.68,11.23
9.707472324371338,10.7,2.06,-1.68,11.02
9.711312294006348,9.92,1.92,-1.09,10.16
9.7240731716156,10.08,1.65,-1.15,10.27
9.731784105300903,10.88,1.59,-1.22,11.06
9.74218225479126,11.48,1.36,-1.12,11.61
9.77762222290039,11.53,0.97,-0.91,11.6
9.77920913696289,10.66,0.55,-0.78,10.7
9.780362129211426,9.42,-0.07,-0.86,9.45
9.79210901260376,8.41,0.45,-1.72,8.59
9.793261051177979,7.46,1.43,-3.15,8.22
9.807658195495605,6.6,3.79,-7.3,10.54
9.811860084533691,-0.9,5.24,-10.85,12.08
9.823204040527344,-12.92,12.22,-5.3,18.55
9.83268404006958,-14.96,17.6,-0.24,23.1
9.84276819229126,-1.22,3.98,1.66,4.48
9.877137184143066,3.66,1.03,2.52,4.56
9.878712177276611,3.58,11.44,6.14,13.46
9.879852294921875,5.68,8.85,12.74,16.51
9.882040977478027,11.62,2.28,-0.14,11.84
9.892722129821777,11.54,-6.31,5.36,14.2
9.902560234069824,-0.04,-8.82,12.72,15.47
9.912508010864258,-4.02,-3.6,0.84,5.46
9.92264699935913,-0.78,-0.14,-11.7,11.72
9.933063983917236,5.08,1.8,-6.96,8.8
9.943113327026367,8.59,1.75,-1.0,8.82
9.976165294647217,8.95,1.19,-3.09,9.54
9.977572202682495,6.66,-0.61,-3.07,7.35
9.978718280792236,2.66,-1.36,-0.31,3.0
9.994043111801147,-1.13,-0.5,1.2,1.72
9.995175123214722,-2.75,0.12,2.23,3.54
10.007756233215332,-2.1,0.22,1.86,2.81
10.013383150100708,-0.11,0.36,0.31,0.48
10.023563146591187,2.1,-0.15,-0.27,2.12
10.03359603881836,3.14,-0.67,-0.29,3.22
10.043959140777588,2.57,-0.49,-0.08,2.61
10.0796480178833,1.14,-0.09,-0.22,1.16
10.08113718032837,-0.06,0.16,-0.3,0.34
10.08226728439331,-0.8,0.26,-0.23,0.87
10.092129230499268,-0.93,0.19,-0.17,0.96
10.093316078186035,-0.6,0.06,-0.16,0.62
10.107067108154297,-0.23,0.05,0.04,0.23
10.113736152648926,-0.06,0.08,0.11,0.14
10.124229192733765,-0.39,0.04,0.03,0.39
10.134312152862549,-0.99,0.02,0.25,1.02
10.144688129425049,-1.55,0.06,0.51,1.63
10.181137084960938,-1.96,0.09,0.69,2.07
10.182703018188477,-1.88,0.18,0.53,1.96
10.183861255645752,-1.59,0.44,0.44,1.7
10.191139221191406,-1.56,0.51,0.39,1.68
10.194006204605103,-1.78,0.2,0.5,1.85
10.207170009613037,-2.23,-0.07,0.51,2.28
10.214285135269165,-2.3,0.0,0.31,2.32
10.224797248840332,-1.77,0.15,0.31,1.8
10.235149145126343,-1.38,0.19,0.54,1.49
10.245664119720459,-1.13,0.21,0.92,1.47
10.278720140457153,-0.93,0.13,1.03,1.39
10.280279159545898,-0.52,0.05,0.8,0.95
10.281431198120117,-0.02,0.17,0.74,0.75
10.293020248413086,0.06,0.36,0.85,0.92
10.294461250305176,-0.04,0.55,0.81,0.97
10.308232307434082,-0.02,0.78,0.78,1.1
10.314825057983398,-0.09,1.02,0.5,1.13
10.325331211090088,-0.14,1.33,0.27,1.36
10.33558702468872,-0.45,1.7,-0.16,1.76
10.346057176589966,-0.84,2.17,-0.72,2.43
10.379945278167725,-1.12,2.44,-0.76,2.79
10.38150930404663,-1.41,2.67,-0.67,3.09
10.382657051086426,-1.8,2.96,-0.18,3.46
10.385057210922241,-2.44,3.1,0.4,3.96
10.395516157150269,-3.15,2.97,0.76,4.39
10.40538215637207,-3.6,2.74,1.03,4.63
10.415492057800293,-4.05,2.6,1.1,4.93
10.425786018371582,-4.58,2.76,0.96,5.43
10.436103105545044,-5.11,3.18,0.37,6.03
10.446356296539307,-5.73,3.32,-0.02,6.62
10.476725101470947,-5.8,3.12,-0.49,6.6
10.478336095809937,-5.17,3.02,-1.47,6.16
10.479490280151367,-4.8,3.01,-2.64,6.25
10.493727207183838,-5.97,3.72,-3.57,7.88
10.495601177215576,-6.35,4.82,-3.75,8.81
10.50780200958252,-6.99,5.23,-2.95,9.21
10.516401290893555,-8.41,5.37,-1.44,10.08
10.526316165924072,-9.98,6.29,-0.01,11.79
10.537174224853516,-10.78,7.82,1.1,13.36
10.547059059143066,-10.15,10.08,2.57,14.53
10.57932424545288,-7.13,13.01,3.82,15.31
10.580910205841064,-0.32,14.01,3.58,14.46
10.582087993621826,4.77,10.3,4.15,12.08
10.591453075408936,1.17,7.14,5.99,9.39
10.59631609916687,-6.45,5.96,5.95,10.6
10.607575178146362,-9.95,3.35,5.04,11.64
10.616849184036255,-10.45,0.33,4.08,11.22
10.626776218414307,-11.25,-0.39,3.37,11.75
10.637683153152466,-8.42,0.79,4.41,9.53
10.647701263427734,-2.4,3.55,3.7,5.66
10.680620193481445,6.41,2.57,-2.57,7.36
10.682270050048828,12.51,-2.17,-1.4,12.77
10.683394193649292,5.16,-3.0,1.7,6.2
10.69144320487976,-4.0,-2.35,2.02,5.05
10.69685411453247,-8.03,-4.55,2.48,9.55
10.707115173339844,-11.02,-6.55,2.18,13.0
10.717432975769043,-12.89,-6.07,1.76,14.35
10.727721214294434,-12.31,-3.85,1.32,12.96
10.73792815208435,-7.89,-3.06,0.96,8.51
10.748388290405273,-5.26,-2.71,0.49,5.93
10.783164978027344,-4.12,-2.51,-0.09,4.82
10.784714221954346,-3.31,-2.75,-0.65,4.35
10.785868167877197,-3.55,-2.76,-0.93,4.59
10.79155421257019,-4.5,-2.36,-0.9,5.16
10.797433137893677,-4.85,-1.61,-0.8,5.17
10.80767297744751,-3.98,-0.65,-0.64,4.08
10.817952156066895,-2.32,0.22,-0.71,2.43
10.828680992126465,-0.76,0.81,-1.06,1.53
10.8388032913208,0.36,0.98,-1.49,1.81
10.848862171173096,0.91,1.2,-2.09,2.57
10.884631156921387,1.66,1.76,-2.93,3.79
10.886054992675781,3.11,2.23,-3.9,5.46
10.887262105941772,4.95,2.31,-4.62,7.15
10.891576290130615,6.36,2.03,-4.84,8.24
10.907602310180664,6.55,1.81,-4.65,8.23
10.908769130706787,5.45,2.07,-4.36,7.27
10.922685146331787,4.0,2.66,-4.26,6.42
10.928587198257446,3.2,3.31,-3.41,5.72
10.940054178237915,3.01,3.63,-2.01,5.12
10.949271202087402,3.12,4.19,-0.27,5.23
10.983424186706543,3.41,4.96,0.73,6.06
10.98479413986206,4.09,5.36,0.58,6.76
10.985944271087646,5.04,5.18,-0.12,7.22
10.991628170013428,5.39,4.73,0.03,7.17
10.998867988586426,4.89,4.09,0.91,6.43
11.009141206741333,4.03,3.68,2.19,5.88
11.019761085510254,3.33,3.65,2.97,5.76
11.029694080352783,3.35,3.45,2.26,5.31
11.039676189422607,4.57,3.37,0.6,5.7
11.050116062164307,6.99,3.25,-0.27,7.71
11.084624290466309,9.34,2.71,0.14,9.72
11.086227178573608,10.49,2.08,0.25,10.69
11.087406158447266,10.39,1.69,-0.54,10.54
11.09171724319458,10.37,1.89,-1.36,10.62
11.107057094573975,10.22,1.45,-1.6,10.44
11.10951018333435,10.05,1.3,-0.97,10.18
11.122799158096313,9.39,2.24,-1.16,9.72
11.130066156387329,9.97,1.63,-0.8,10.13
11.140525102615356,9.63,2.91,-1.62,10.18
11.150553226470947,7.7,3.6,-9.04,12.4
11.184245109558105,-1.67,6.95,-7.17,10.12
11.185644149780273,-12.23,10.96,10.02,19.23
11.18686318397522,-9.81,12.7,5.37,16.92
11.19188117980957,2.83,7.53,-0.6,8.06
11.20021915435791,7.8,8.68,5.59,12.93
11.210048198699951,10.12,4.82,5.59,12.52
11.220440149307251,14.41,-0.08,-3.91,14.93
11.231098175048828,9.12,-4.01,-0.29,9.96
11.240803241729736,0.71,-3.85,3.4,5.18
11.251679182052612,-1.91,-1.83,3.53,4.41
11.2869873046875,-1.21,0.68,-1.0,1.71
11.28852915763855,1.72,2.53,-5.48,6.27
11.289689064025879,4.27,2.33,-4.14,6.38
11.29225206375122,4.04,0.39,-0.54,4.09
11.300498008728027,1.52,-1.05,1.23,2.21
11.31095814704895,-0.8,-1.13,1.57,2.09
11.321205139160156,-1.95,-0.52,2.06,2.88
11.331659317016602,-2.22,-0.13,3.05,3.77
11.34156608581543,-2.2,-0.21,3.11,3.81
11.35189414024353,-2.09,-0.34,1.63,2.67
11.385578155517578,-1.78,-0.34,0.32,1.84
11.38712215423584,-1.38,-0.18,-0.09,1.39
11.388264179229736,-0.84,-0.04,-0.64,1.05
11.391897201538086,-0.34,-0.07,-1.03,1.08
11.407989978790283,0.11,-0.2,-0.75,0.78
11.411216259002686,0.65,-0.29,-0.78,1.05
11.423254013061523,1.02,-0.18,-0.44,1.12
11.431929111480713,0.8,-0.03,0.19,0.82
11.442073106765747,0.12,-0.01,0.39,0.4
11.45254898071289,-0.3,0.06,0.17,0.35
11.486110210418701,0.0,0.2,0.06,0.2
11.487575054168701,0.46,0.18,-0.23,0.54
11.48872423171997,0.69,0.15,-0.21,0.73
11.492452144622803,0.56,0.03,0.05,0.56
11.5020112991333,-0.09,-0.03,0.29,0.3
11.511892318725586,-0.79,-0.17,0.66,1.04
11.522311210632324,-1.2,-0.27,0.82,1.47
11.532333135604858,-1.3,-0.15,0.71,1.48
11.542924165725708,-1.04,0.05,0.64,1.22
11.553121089935303,-0.91,0.06,0.45,1.01
11.587298154830933,-0.86,-0.08,0.24,0.89
11.588900089263916,-0.83,-0.17,0.25,0.88
11.59003210067749,-0.64,-0.22,0.31,0.74
11.592406272888184,-0.44,-0.1,0.62,0.76
11.602272033691406,-0.71,0.06,0.65,0.96
11.612751007080078,-1.15,0.11,0.89,1.45
11.622582197189331,-1.32,0.47,0.85,1.63
11.633038997650146,-1.42,0.83,0.58,1.74
11.642845153808594,-0.98,0.79,-0.02,1.25
11.653299331665039,-0.05,0.96,-0.35,1.02
11.688589096069336,0.46,0.99,-0.23,1.11
11.690133094787598,-0.05,0.95,-0.17,0.96
11.691267013549805,-0.82,1.13,0.38,1.44
11.709928035736084,-1.36,1.84,0.58,2.36
11.71110200881958,-1.86,2.59,0.93,3.32
11.724781036376953,-2.41,3.17,0.94,4.09
11.726529121398926,-2.84,3.6,0.47,4.6
11.740653991699219,-3.05,3.9,-0.02,4.95
11.744137287139893,-3.28,4.1,-0.55,5.27
11.757524013519287,-3.43,4.52,-0.87,5.74
11.784921169281006,-3.77,4.67,-0.98,6.08
11.786549091339111,-4.55,4.26,-1.27,6.36
11.787710189819336,-5.39,3.7,-1.33,6.67
11.793618202209473,-6.2,3.44,-1.78,7.31
11.807490110397339,-6.6,4.09,-2.48,8.15
11.81352424621582,-7.01,5.8,-2.48,9.43
11.82387399673462,-8.16,7.25,-1.61,11.03
11.834614276885986,-10.11,7.69,-0.57,12.71
11.844913005828857,-10.71,7.63,0.09,13.15
11.855192184448242,-10.86,7.19,0.66,13.04
11.890979290008545,-12.18,7.35,1.47,14.3
11.892359256744385,-7.64,8.64,3.0,11.91
11.893526077270508,-0.98,11.48,3.31,11.98
11.895431995391846,3.68,12.92,4.97,14.32
11.904054164886475,2.88,9.55,7.15,12.27
11.91464114189148,-1.14,5.14,6.1,8.05
11.924834251403809,-5.56,2.43,5.07,7.9
11.934901237487793,-8.21,0.06,4.45,9.33
11.94518232345581,-8.87,-1.58,3.99,9.85
11.9552903175354,-7.19,-1.27,5.03,8.86
11.987935066223145,-2.77,0.43,3.85,4.76
11.989549160003662,2.43,-0.93,-0.18,2.6
11.99074912071228,4.25,-3.25,0.26,5.35
11.9948091506958,-2.21,-3.05,2.26,4.39
12.00486421585083,-7.71,-3.13,2.79,8.77
12.015460014343262,-10.09,-4.86,3.21,11.65
12.025298118591309,-11.24,-6.02,2.25,12.94
12.035535097122192,-10.84,-5.18,0.77,12.03
12.045598030090332,-6.99,-3.95,-0.11,8.02
12.056288242340088,-4.28,-3.09,-0.4,5.29
12.089975118637085,-3.29,-2.51,-0.37,4.15
12.091557025909424,-2.83,-2.45,-0.13,3.74
12.092693328857422,-2.77,-2.62,0.01,3.81
12.110159158706665,-2.77,-2.62,-0.04,3.81
12.111083984375,-2.71,-2.46,0.03,3.66
12.124824047088623,-2.91,-2.09,0.04,3.58
12.126591205596924,-3.37,-1.36,-0.13,3.63
12.140580177307129,-3.41,-0.51,-0.06,3.44
12.146197319030762,-2.86,0.24,0.49,2.91
12.157741069793701,-2.09,0.73,1.11,2.47
12.192046165466309,-1.19,1.0,1.31,2.03
12.19361400604248,-0.38,1.33,1.1,1.76
12.19474720954895,0.62,1.85,0.42,1.99
12.211749076843262,1.87,2.32,-0.45,3.01
12.21290111541748,3.1,2.75,-1.4,4.37
12.22478199005127,4.11,3.1,-1.99,5.51
12.226538181304932,4.63,3.24,-1.99,5.99
12.240554094314575,4.58,3.26,-1.66,5.86
12.24714708328247,4.16,3.46,-1.39,5.58
12.258024215698242,3.72,4.03,-1.31,5.63
12.28965425491333,3.47,4.9,-1.06,6.09
12.291137218475342,3.73,5.79,-0.9,6.94
12.292270183563232,4.83,6.18,-0.63,7.86
12.311628103256226,6.39,5.98,-0.27,8.75
12.312307119369507,7.38,5.26,0.02,9.06
12.324684143066406,7.24,4.57,0.21,8.56
12.326865196228027,6.62,4.14,0.44,7.82
12.339981079101562,6.38,3.84,0.96,7.5
12.347515106201172,6.62,3.35,1.41,7.55
12.357901096343994,7.05,2.76,1.28,7.67
12.388869285583496,7.78,2.68,0.74,8.26
12.390910148620605,8.94,2.5,0.75,9.31
12.392178058624268,9.82,2.04,1.35,10.12
12.39720106124878,10.26,1.62,1.08,10.44
12.407315254211426,10.58,1.24,0.04,10.65
12.417494297027588,10.78,1.14,-0.72,10.86
12.428145170211792,10.85,1.15,-1.04,10.96
12.438148975372314,10.87,1.09,-1.09,10.97
12.448167324066162,9.77,2.05,-1.57,10.1
12.45876407623291,9.28,0.97,-3.66,10.02
12.49048900604248,5.91,-0.55,-8.62,10.46
12.491881132125854,-4.3,1.23,-8.63,9.72
12.493025302886963,-13.94,8.8,-1.51,16.55
12.511326313018799,-14.68,16.32,3.87,22.28
12.512731075286865,-0.7,9.11,3.29,9.71
12.52815318107605,5.44,4.69,2.69,7.66
12.530027151107788,7.05,7.13,3.78,10.71
12.54127025604248,10.06,2.38,3.88,11.04
12.549208164215088,13.16,-2.7,-2.5,13.66
12.559190273284912,7.78,-3.71,2.14,8.88
12.592702150344849,-0.66,-2.71,5.26,5.95
12.594279289245605,-2.5,-0.66,4.03,4.78
12.595424175262451,-1.31,0.56,-1.28,1.91
12.610774993896484,1.74,1.83,-6.59,7.05
12.61197805404663,4.67,1.91,-4.89,7.02
12.624845027923584,5.38,0.76,-1.5,5.63
12.628962993621826,3.83,-0.77,-0.13,3.9
12.641073226928711,1.31,-1.14,0.28,1.75
12.649639129638672,-0.64,-0.74,1.41,1.71
12.65958023071289,-1.63,-0.33,2.83,3.28
12.69467306137085,-1.9,-0.06,3.19,3.71
12.696242094039917,-1.28,0.02,1.67,2.1
12.697390079498291,-0.24,0.0,-0.38,0.44
12.711262226104736,0.44,0.04,-1.18,1.26
12.712759017944336,0.64,0.09,-0.86,1.07
12.724950313568115,0.2,0.06,-0.39,0.44
12.730029106140137,-0.82,-0.1,0.14,0.83
12.741336107254028,-1.8,-0.09,0.6,1.89
12.750010013580322,-2.14,0.01,0.92,2.32
12.76018214225769,-1.93,0.01,0.83,2.1
12.795934200286865,-1.27,0.06,0.6,1.4
12.797473192214966,-0.4,0.03,0.46,0.61
12.798640251159668,-0.02,-0.05,0.38,0.38
12.810137271881104,-0.17,-0.06,0.35,0.39
12.811273097991943,-0.16,0.06,0.27,0.31
12.825013160705566,-0.06,0.2,0.27,0.34
12.830048084259033,0.14,0.25,0.22,0.36
12.84128212928772,0.2,0.12,0.18,0.29
12.851119995117188,-0.09,0.0,0.19,0.21
12.860781192779541,-0.45,0.06,0.28,0.53
12.893938064575195,-0.66,0.13,0.31,0.74
12.895510196685791,-0.79,0.12,0.27,0.84
12.89668607711792,-0.66,0.17,0.36,0.77
12.90013313293457,-0.49,0.21,0.18,0.56
12.910474300384521,-0.38,0.23,0.06,0.44
12.920701026916504,-0.26,0.37,0.22,0.5
12.930862188339233,-0.35,0.43,0.43,0.7
12.941200256347656,-0.73,0.49,0.36,0.95
12.951237201690674,-0.78,0.55,0.24,0.98
12.961565017700195,-0.54,0.64,0.17,0.85
12.99538803100586,-0.46,0.82,0.17,0.95
12.996548175811768,-0.59,0.88,0.2,1.07
12.997735977172852,-0.78,0.93,-0.01,1.21
13.010606288909912,-1.12,1.23,0.09,1.66
13.011850118637085,-1.44,1.67,0.58,2.28
13.025134086608887,-1.82,2.25,1.0,3.06
13.031160116195679,-2.34,2.86,1.22,3.89
13.041727066040039,-2.84,3.36,1.2,4.56
13.051813125610352,-3.1,3.59,0.7,4.79
13.061991214752197,-3.32,3.79,0.41,5.05
13.09870719909668,-3.74,3.92,0.3,5.42
13.100195169448853,-4.19,3.92,0.11,5.73
13.10128927230835,-4.43,3.8,0.0,5.83
13.109333992004395,-4.55,3.59,-0.27,5.8
13.111406326293945,-4.46,3.39,-0.64,5.63
13.125201225280762,-4.68,3.2,-0.61,5.7
13.131776094436646,-5.38,3.3,-0.95,6.38
13.142500162124634,-5.97,4.09,-0.74,7.27
13.152382135391235,-6.77,5.38,0.42,8.65
13.16266417503357,-8.74,5.84,1.56,10.62
13.198186159133911,-9.57,5.56,2.4,11.32
13.199758052825928,-11.11,6.2,2.23,12.91
13.200858116149902,-12.25,7.38,1.91,14.42
13.20943307876587,-8.59,8.31,2.37,12.18
13.212220191955566,-4.48,10.3,4.26,12.01
13.225409030914307,-1.91,13.16,4.25,13.96
13.232401132583618,-1.24,11.91,4.14,12.66
13.242769241333008,-3.03,7.56,4.97,9.54
13.25300407409668,-5.24,4.51,4.52,8.26
13.26370120048523,-7.48,2.72,4.05,8.93
13.295770168304443,-8.7,1.58,3.81,9.62
13.297358989715576,-7.37,1.44,4.26,8.63
13.298510074615479,-2.56,2.9,4.33,5.8
13.312625169754028,4.35,0.63,0.85,4.47
13.313781261444092,7.69,-3.11,0.09,8.29
13.32635498046875,0.85,-3.01,1.66,3.54
13.332980155944824,-6.13,-2.7,1.75,6.92
13.343640327453613,-9.73,-4.31,1.31,10.72
13.353707313537598,-12.4,-5.39,1.26,13.57
13.363944053649902,-13.12,-5.06,1.59,14.15
13.397378206253052,-9.35,-4.61,1.7,10.56
13.398969173431396,-5.39,-4.19,1.21,6.93
13.400118112564087,-4.09,-3.31,0.48,5.28
13.414221286773682,-3.0,-2.66,-0.08,4.01
13.415528297424316,-1.28,-2.8,-1.16,3.28
13.426319122314453,0.19,-3.08,-2.66,4.07
13.433553218841553,0.78,-3.01,-2.97,4.29
13.444327116012573,0.6,-2.68,-2.82,3.93
13.45453405380249,0.08,-1.93,-2.33,3.02
13.464378118515015,-0.54,-1.52,-0.77,1.78
13.498449325561523,-1.42,-1.5,1.0,2.29
13.500076293945312,-1.8,-1.05,1.57,2.6
13.50126314163208,-0.46,-0.13,1.07,1.17
13.51154613494873,1.85,0.58,0.18,1.94
13.51380729675293,3.01,0.91,-0.33,3.16
13.525761127471924,3.11,1.16,-0.7,3.39
13.534599304199219,3.24,1.3,-1.09,3.65
13.544684171676636,3.76,1.34,-1.34,4.21
13.555379152297974,4.2,1.41,-1.44,4.65
13.565389156341553,4.24,1.51,-1.47,4.73
13.599437236785889,4.23,1.66,-1.54,4.79
13.60087513923645,4.23,1.75,-1.61,4.85
13.601909160614014,4.13,1.99,-1.33,4.77
13.609639167785645,3.87,2.45,-1.04,4.69
13.614711284637451,3.68,2.96,-0.96,4.81
13.62596607208252,3.74,3.38,-0.85,5.11
13.634918212890625,3.96,3.62,-0.52,5.39
13.645270109176636,4.22,3.7,-0.12,5.61
13.65571117401123,4.31,3.61,0.33,5.63
13.665850162506104,4.15,3.59,0.8,5.54
13.700053215026855,3.86,3.64,1.15,5.42
13.701609134674072,3.7,3.47,1.34,5.24
13.702715158462524,3.87,3.16,1.52,5.22
13.709583282470703,4.49,2.48,1.48,5.33
13.714991092681885,5.68,1.8,0.67,5.99
13.725556135177612,7.23,1.51,-0.36,7.39
13.735390186309814,8.36,1.26,-0.48,8.46
13.745789051055908,8.72,1.07,-0.15,8.78
13.756160259246826,8.8,0.91,-0.19,8.84
13.766432285308838,9.1,0.97,-0.51,9.16
13.799779176712036,9.56,0.98,-0.55,9.62
13.801350116729736,9.8,0.89,-0.43,9.84
13.802476167678833,9.47,1.76,-1.02,9.68
13.809713125228882,7.95,2.53,-1.13,8.41
13.81559419631958,7.62,2.44,-3.57,8.76
13.826236248016357,5.26,2.93,-9.18,10.97
13.836188316345215,-3.96,4.78,-9.09,11.0
13.84647512435913,-12.71,11.37,0.11,17.05
13.85755205154419,-7.66,10.42,2.76,13.22
13.866950035095215,3.97,5.16,0.0,6.51
13.8997802734375,7.53,11.76,5.73,15.09
13.901427268981934,10.48,8.02,5.43,14.27
13.902584075927734,15.77,1.44,-6.97,17.3
13.909962177276611,7.13,-3.4,-1.39,8.02
13.916439056396484,-3.5,-4.8,6.24,8.61
13.92651915550232,-6.24,-3.16,8.72,11.17
13.936907291412354,-5.97,-0.59,3.42,6.9
13.94724416732788,0.04,1.39,-4.51,4.71
13.957648277282715,5.61,1.67,-4.1,7.14
13.96790599822998,6.71,0.4,0.33,6.73
14.001350164413452,3.46,-0.79,0.79,3.63
14.002921104431152,-0.37,-0.67,-0.64,0.99
14.004054069519043,-2.27,-0.03,-0.03,2.27
14.009836196899414,-2.24,0.1,1.62,2.76
14.017117977142334,-1.22,-0.05,1.75,2.13
14.027298212051392,-0.21,-0.29,0.82,0.89
14.037789106369019,0.42,-0.48,0.43,0.76
14.047982215881348,0.67,-0.36,0.37,0.84
14.057884216308594,0.59,-0.17,0.06,0.61
14.068040132522583,0.22,-0.02,-0.42,0.47
14.102872133255005,-0.2,0.13,-0.18,0.29
14.104475021362305,-0.6,0.23,0.16,0.66
14.105626106262207,-0.87,0.26,0.38,0.98
14.109873294830322,-1.03,0.21,0.66,1.24
14.125728130340576,-1.04,0.17,0.52,1.17
14.127835273742676,-0.85,0.06,0.41,0.94
14.140971183776855,-0.54,0.06,0.32,0.63
14.148171186447144,-0.5,0.08,0.25,0.56
14.158812046051025,-0.25,0.22,0.17,0.37
14.16857099533081,-0.14,0.13,0.25,0.31
14.198797225952148,-0.21,0.1,0.28,0.36
14.200176239013672,-0.31,-0.01,0.32,0.44
14.20130729675293,-0.38,0.01,0.27,0.46
14.210694313049316,-0.49,-0.08,0.18,0.52
14.218504190444946,-0.66,-0.14,0.19,0.7
14.228516101837158,-0.82,0.08,0.43,0.92
14.23926305770874,-0.92,0.45,0.45,1.11
14.248944282531738,-0.86,0.53,0.31,1.05
14.259136199951172,-0.44,0.53,0.02,0.68
14.269168138504028,0.05,0.53,-0.14,0.55
14.305943012237549,0.18,0.57,-0.33,0.68
14.3074791431427,0.07,0.59,-0.34,0.68
14.308528184890747,-0.07,0.49,-0.23,0.54
14.330057144165039,-0.32,0.66,-0.09,0.73
14.331852197647095,-0.59,0.88,0.14,1.06
14.342697143554688,-0.85,0.89,0.42,1.3
14.345194101333618,-0.94,0.82,0.65,1.4
14.358955144882202,-1.13,0.92,0.62,1.58
14.361501216888428,-1.39,1.02,0.42,1.77
14.375490188598633,-1.54,1.13,0.19,1.91
14.402374267578125,-1.59,1.33,0.03,2.07
14.40400505065918,-1.61,1.66,-0.12,2.31
14.405166149139404,-1.96,2.0,-0.14,2.8
14.410186290740967,-2.47,2.23,-0.23,3.33
14.419488191604614,-2.86,2.56,-0.19,3.84
14.429944038391113,-3.29,2.89,-0.15,4.38
14.439743995666504,-3.49,3.08,-0.12,4.65
14.450329303741455,-3.75,3.05,-0.12,4.83
14.460239171981812,-4.34,3.02,-0.2,5.29
14.470585107803345,-5.15,2.94,-0.11,5.93
14.503887176513672,-6.17,2.95,-0.13,6.84
14.505489110946655,-7.09,3.74,-0.26,8.02
14.506667137145996,-7.69,5.7,-0.02,9.57
14.511112213134766,-8.76,7.43,0.72,11.5
14.527355194091797,-10.41,7.53,1.03,12.88
14.529989242553711,-9.67,7.69,1.09,12.4
14.541426181793213,-11.03,8.7,-0.11,14.04
14.550830125808716,-8.57,8.93,0.06,12.37
14.561119079589844,-3.92,9.37,1.95,10.34
14.571293115615845,-1.17,12.21,3.55,12.76
14.603983163833618,-0.84,13.37,5.87,14.62
14.605448246002197,-1.25,9.31,6.44,11.38
14.60659122467041,-3.06,4.99,5.98,8.36
14.610602140426636,-5.85,2.19,5.44,8.28
14.625534057617188,-7.66,0.26,4.27,8.77
14.630516052246094,-7.15,-1.05,3.04,7.84
14.641525268554688,-3.92,-1.26,2.86,5.01
14.651516199111938,2.34,0.55,-0.2,2.41
14.661293983459473,9.13,-0.98,-3.19,9.72
14.671847105026245,6.45,-2.53,-0.81,6.97
14.709570169448853,-1.52,-2.41,0.62,2.91
14.711050033569336,-7.24,-3.84,1.78,8.38
14.71219515800476,-11.31,-5.69,2.76,12.95
14.730247974395752,-13.39,-6.36,2.82,15.08
14.732012271881104,-12.79,-5.13,2.09,13.93
14.743588209152222,-8.5,-4.29,1.58,9.65
14.746134281158447,-6.42,-3.49,0.97,7.37
14.759214162826538,-5.82,-2.88,0.5,6.51
14.761816024780273,-5.02,-2.82,0.38,5.77
14.77543830871582,-4.66,-2.71,0.41,5.4
14.801307201385498,-4.8,-2.24,0.37,5.3
14.802901268005371,-4.59,-1.4,0.1,4.79
14.804044246673584,-3.81,-0.56,0.22,3.85
14.811849117279053,-2.99,0.07,0.69,3.06
14.82192611694336,-2.83,0.72,1.08,3.11
14.831937313079834,-3.0,1.54,1.19,3.57
14.842079162597656,-2.56,2.17,1.19,3.56
14.852745056152344,-1.5,2.42,0.87,2.97
14.863059997558594,0.38,2.56,0.08,2.58
14.873530149459839,2.52,2.85,-0.77,3.88
14.906383037567139,3.86,3.32,-1.37,5.27
14.908551216125488,4.59,3.73,-2.05,6.25
14.90968918800354,4.61,3.25,-2.75,6.27
14.93058729171753,4.17,3.09,-2.72,5.85
14.932392120361328,4.42,2.62,-2.95,5.92
14.944363117218018,4.72,2.38,-2.98,6.06
14.946848154067993,4.5,2.36,-3.24,6.02
14.958667278289795,4.1,2.43,-3.22,5.75
14.963076114654541,3.93,2.49,-2.87,5.46
14.975871086120605,4.07,2.45,-2.49,5.36
15.0021071434021,4.33,2.54,-2.24,5.49
15.003701210021973,4.72,2.66,-2.08,5.8
15.00487232208252,5.03,2.81,-1.87,6.05
15.013111114501953,5.2,2.99,-1.69,6.23
15.022969245910645,5.28,3.09,-1.5,6.29
15.032973289489746,5.19,3.15,-1.15,6.17
15.043384075164795,4.87,3.31,-0.4,5.9
15.05394721031189,4.51,3.49,0.73,5.74
15.064050197601318,4.21,3.49,1.78,5.75
15.074333190917969,4.22,3.19,1.92,5.62
15.10892105102539,5.32,2.89,1.15,6.16
15.110314130783081,7.48,2.57,0.85,7.95
15.111415147781372,9.63,2.28,0.95,9.94
15.129647254943848,10.94,1.76,0.74,11.1
15.130797147750854,11.38,1.37,-0.02,11.46
15.143123149871826,11.36,1.3,-0.76,11.45
15.144911289215088,10.97,1.38,-0.71,11.07
15.15890121459961,9.71,2.63,-0.9,10.1
15.164243221282959,8.37,2.57,-0.32,8.76
15.17625117301941,7.85,1.92,-2.81,8.55
15.210280179977417,3.42,2.44,-11.05,11.82
15.211915016174316,-7.49,6.87,-5.59,11.59
15.213107109069824,-14.47,12.19,5.51,19.7
15.229903221130371,-7.02,9.9,2.44,12.37
15.231022119522095,4.02,2.53,0.43,4.76
15.243539094924927,5.51,3.67,0.05,6.62
15.245307207107544,6.87,7.56,4.88,11.32
15.25900411605835,9.06,1.92,10.8,14.22
15.26497507095337,12.13,-1.37,0.87,12.23
15.276017189025879,6.38,-1.3,-0.08,6.51
15.310635089874268,-1.89,-1.83,2.65,3.73
15.31221628189087,-2.67,-0.97,4.19,5.06
15.313358306884766,0.2,-0.61,-1.73,1.84
15.330038070678711,4.24,1.05,-7.44,8.62
15.331194162368774,6.88,1.69,-4.96,8.64
15.342967987060547,6.27,1.27,-2.14,6.74
15.345123291015625,3.16,0.05,-0.89,3.28
15.358935117721558,0.21,-0.83,1.23,1.49
15.365607261657715,-1.63,-0.69,2.83,3.33
15.376107215881348,-2.14,-0.11,3.25,3.89
15.407177209854126,-1.47,0.03,2.77,3.13
15.408699035644531,-1.08,-0.19,1.56,1.9
15.409838199615479,-1.27,-0.22,0.8,1.51
15.43003511428833,-1.61,-0.21,-0.14,1.62
15.430741310119629,-2.01,-0.06,-0.28,2.03
15.448471069335938,-2.21,0.01,0.02,2.21
15.451027154922485,-2.1,-0.04,0.29,2.12
15.458438158035278,-1.79,-0.15,0.72,1.93
15.466344118118286,-1.27,-0.2,0.66,1.44
15.476582050323486,-0.51,-0.14,0.32,0.61
15.5101900100708,0.36,-0.04,-0.02,0.36
15.512618064880371,0.93,-0.06,-0.19,0.95
15.513794183731079,0.81,0.0,-0.32,0.87
15.530304193496704,0.47,0.07,-0.21,0.51
15.531454086303711,0.38,0.02,-0.2,0.42
15.543273210525513,0.5,0.01,-0.21,0.54
15.546265125274658,0.44,0.15,0.06,0.46
15.558444023132324,0.28,0.15,0.18,0.36
15.566935062408447,0.23,0.04,0.04,0.23
15.57695198059082,0.3,-0.02,0.21,0.36
15.607827186584473,0.2,0.04,0.38,0.43
15.609332084655762,-0.12,0.18,0.01,0.21
15.610397100448608,-0.42,0.18,-0.17,0.48
15.629898071289062,-0.57,0.15,0.08,0.59
15.631044149398804,-0.89,0.13,0.15,0.91
15.644496202468872,-1.28,0.26,0.42,1.37
15.64695119857788,-1.36,0.44,0.93,1.7
15.659334182739258,-1.35,0.54,1.33,1.97
15.667325019836426,-1.62,0.64,1.68,2.42
15.677762985229492,-1.87,0.82,1.6,2.59
15.708686113357544,-1.83,0.96,1.14,2.36
15.710261106491089,-1.53,1.25,0.75,2.11
15.71140718460083,-1.41,1.76,0.49,2.3
15.729932308197021,-1.34,2.14,-0.16,2.52
15.730823993682861,-1.4,2.58,-0.42,2.96
15.744326114654541,-1.97,2.78,0.02,3.4
15.747783184051514,-2.26,2.97,0.39,3.75
15.759530067443848,-2.63,2.98,0.56,4.01
15.768286228179932,-3.3,3.09,0.52,4.55
15.778223037719727,-3.79,3.09,0.53,4.91
15.812700271606445,-3.89,2.97,0.34,4.9
15.814292192459106,-3.93,2.88,0.07,4.87
15.815431118011475,-4.17,2.7,-0.24,4.97
15.830420017242432,-4.44,2.44,-0.36,5.07
15.831568241119385,-4.88,2.26,-0.55,5.4
15.84332013130188,-5.48,2.32,-0.79,6.0
15.848082065582275,-5.91,3.01,-1.16,6.73
15.858879089355469,-6.31,4.53,-0.8,7.8
15.868823051452637,-7.36,6.01,0.31,9.5
15.8789541721344,-9.66,6.64,1.18,11.78
15.914398193359375,-11.99,7.82,1.78,14.42
15.91600513458252,-11.94,8.49,2.06,14.79
15.917159080505371,-11.65,9.11,1.79,14.89
15.928701162338257,-9.86,10.71,1.8,14.66
15.929807186126709,-3.64,11.92,3.71,13.0
15.944660186767578,0.79,11.51,5.51,12.78
15.94878101348877,-0.07,9.77,6.0,11.46
15.959347248077393,-3.17,5.83,5.22,8.44
15.969402313232422,-5.54,2.44,3.99,7.25
15.979542255401611,-7.3,0.38,3.17,7.96
16.01226806640625,-8.08,-0.47,3.21,8.7
16.013829231262207,-6.37,-0.15,5.31,8.29
16.014950275421143,-1.19,1.76,2.63,3.38
16.030298233032227,7.13,-0.61,-2.03,7.43
16.03144407272339,9.79,-4.3,0.13,10.69
16.044039249420166,0.56,-3.47,2.15,4.12
16.04930305480957,-6.42,-3.31,2.29,7.57
16.059747219085693,-9.82,-5.32,2.09,11.36
16.0699782371521,-12.46,-6.35,0.98,14.01
16.08024024963379,-13.39,-5.14,0.4,14.34
16.114871978759766,-10.03,-4.03,-0.15,10.81
16.116470098495483,-5.38,-3.78,-0.38,6.58
16.117597103118896,-3.83,-3.21,-0.43,5.01
16.129398107528687,-3.02,-3.16,-0.34,4.38
16.130534172058105,-2.93,-3.54,-0.23,4.6
16.144357204437256,-3.29,-3.63,-0.19,4.9
16.149680137634277,-3.29,-3.38,-0.2,4.72
16.160640239715576,-3.11,-2.95,-0.38,4.3
16.17054009437561,-3.44,-2.3,-0.61,4.18
16.180955171585083,-3.99,-1.51,-0.5,4.29
16.21871328353882,-4.1,-0.68,0.05,4.15
16.220367193222046,-3.63,0.22,0.63,3.69
16.221535205841064,-2.59,1.04,0.65,2.86
16.227354049682617,-1.2,1.61,0.29,2.02
16.230154991149902,0.0,2.2,-0.28,2.21
16.243460178375244,1.04,2.89,-1.05,3.24
16.250450134277344,2.09,3.66,-1.9,4.62
16.260892152786255,3.02,4.34,-2.37,5.79
16.271083116531372,3.66,4.72,-2.49,6.47
16.281400203704834,3.99,4.78,-2.48,6.7
16.316425323486328,4.09,4.76,-2.42,6.72
16.31799817085266,4.13,5.2,-2.25,7.01
16.319097995758057,4.06,5.52,-2.16,7.18
16.328160285949707,4.07,5.89,-1.94,7.41
16.330658197402954,4.58,6.77,-1.6,8.32
16.344479084014893,4.93,6.39,-1.22,8.16
16.35111713409424,5.39,5.87,-0.83,8.01
16.361675262451172,5.84,5.2,-0.7,7.85
16.37197518348694,6.45,4.49,-0.86,7.9
16.38206911087036,7.4,4.55,-0.84,8.72
16.41871404647827,8.22,3.68,-0.1,9.0
16.42022132873535,8.34,2.47,1.11,8.76
16.42137312889099,8.03,2.01,1.02,8.34
16.427483081817627,7.92,2.08,1.06,8.25
16.431302070617676,7.98,2.21,1.82,8.47
16.443791151046753,8.07,2.02,3.28,8.94
16.451661109924316,8.46,0.99,4.34,9.55
16.463396072387695,9.14,0.34,3.38,9.75
16.472687244415283,9.69,0.3,1.93,9.88
16.48253107070923,10.0,0.22,0.49,10.01
16.51763415336609,10.02,-0.31,-1.0,10.07
16.519236087799072,9.16,-0.42,-2.91,9.62
16.520365238189697,7.18,-0.29,-5.97,9.34
16.5281400680542,5.55,2.37,-7.87,9.91
16.53186011314392,1.67,4.76,-13.03,13.97
16.543901205062866,-8.77,12.86,-8.25,17.61
16.55225419998169,-12.09,20.82,0.45,24.07
16.562677145004272,-0.47,8.5,1.79,8.69
16.57291603088379,5.14,1.67,2.81,6.09
16.58365511894226,5.59,5.72,2.63,8.41
16.615740299224854,7.74,3.69,7.0,11.06
16.617303133010864,9.92,-2.77,8.44,13.31
16.618438243865967,6.9,-3.07,5.74,9.48
16.62979221343994,-0.39,-1.6,5.3,5.54
16.63246726989746,-2.78,-0.16,2.34,3.63
16.644050121307373,-1.5,1.64,-2.85,3.61
16.65304708480835,0.86,1.89,-5.74,6.1
16.6634681224823,2.74,1.7,-5.33,6.22
16.674068212509155,3.42,0.3,-2.96,4.53
16.68377923965454,3.09,-0.76,-1.75,3.63
16.72069811820984,2.19,-1.13,0.13,2.46
16.7222900390625,0.7,-0.97,2.63,2.88
16.723462104797363,-1.13,-0.62,3.86,4.06
16.727741241455078,-2.46,-0.35,3.25,4.09
16.744271278381348,-2.4,0.02,1.44,2.79
16.74601912498474,-0.98,0.27,-0.41,1.09
16.759043216705322,0.59,0.21,-1.2,1.35
16.76357913017273,1.39,0.1,-1.36,1.94
16.776310205459595,1.29,-0.03,-0.96,1.6
16.784176111221313,0.67,-0.23,-0.21,0.73
16.815612316131592,-0.25,-0.23,0.55,0.64
16.81692600250244,-1.08,-0.03,0.88,1.39
16.818073272705078,-1.29,0.17,0.92,1.59
16.827951192855835,-0.7,0.15,0.55,0.9
16.833659172058105,0.1,0.02,0.14,0.17
16.84387731552124,0.6,0.02,0.0,0.6
16.854241132736206,0.71,0.09,-0.02,0.71
16.86419105529785,0.2,0.1,0.2,0.3
16.875232219696045,-0.72,0.07,0.56,0.91
16.88520097732544,-1.21,-0.03,1.0,1.57
16.918182134628296,-1.47,-0.04,1.15,1.86
16.91975712776184,-1.59,0.07,1.06,1.91
16.920892238616943,-1.54,-0.01,0.47,1.61
16.92812204360962,-1.35,-0.2,-0.58,1.48
16.934768199920654,-0.88,-0.17,-0.8,1.2
16.944794178009033,-0.59,-0.14,-0.53,0.8
16.95503520965576,-0.74,-0.27,0.07,0.79
16.96547222137451,-1.0,-0.28,0.58,1.18
16.975478172302246,-1.14,0.13,0.67,1.32
16.985844135284424,-1.07,0.4,0.92,1.46
17.019594192504883,-0.69,0.45,0.72,1.09
17.021198272705078,-0.23,0.35,0.45,0.61
17.02235698699951,-0.06,0.09,0.39,0.4
17.02805805206299,-0.1,0.14,0.37,0.4
17.035198211669922,-0.27,0.51,0.34,0.66
17.045122146606445,-0.59,0.75,0.1,0.95
17.055774211883545,-0.47,0.91,0.13,1.03
17.06609320640564,-0.32,1.16,0.3,1.24
17.075916290283203,-0.51,1.76,0.23,1.84
17.08613610267639,-0.84,2.19,0.6,2.42
17.12064504623413,-1.32,2.55,0.96,3.02
17.12220811843872,-1.64,2.88,1.26,3.54
17.1233811378479,-2.01,3.13,1.2,3.9
17.128118991851807,-2.56,3.29,0.64,4.21
17.135460138320923,-2.92,3.43,0.09,4.5
17.146045207977295,-2.99,3.27,-0.65,4.47
17.156090259552002,-3.26,3.01,-1.45,4.66
17.166425228118896,-3.45,2.68,-1.99,4.8
17.176765203475952,-3.44,2.35,-2.29,4.75
17.186837196350098,-3.6,2.39,-2.26,4.87
17.221880197525024,-4.4,2.97,-1.96,5.65
17.223510265350342,-5.89,4.15,-1.59,7.37
17.22465229034424,-7.89,5.96,-1.49,9.99
17.228138208389282,-9.81,7.89,-1.41,12.66
17.2437481880188,-10.88,8.9,-1.15,14.1
17.246516227722168,-10.86,9.65,-0.32,14.53
17.259204149246216,-13.13,10.39,0.3,16.74
17.266934156417847,-13.92,10.25,1.27,17.33
17.277160167694092,-9.57,9.67,2.04,13.75
17.287458181381226,-3.31,10.01,3.83,11.21
17.320975303649902,2.86,11.09,3.31,11.92
17.322343111038208,4.55,9.66,4.86,11.73
17.323513984680176,0.43,6.21,6.75,9.18
17.328256130218506,-4.68,2.99,6.54,8.57
17.337095260620117,-7.5,0.34,5.82,9.49
17.34696102142334,-7.17,-1.74,4.8,8.8
17.357356071472168,-5.09,-1.78,5.03,7.37
17.36777925491333,-1.38,0.98,3.1,3.53
17.377750158309937,4.78,-0.17,-1.61,5.04
17.388389110565186,5.17,-2.85,1.3,6.04
17.422657012939453,-2.91,-2.6,3.15,5.01
17.424190998077393,-7.92,-3.86,4.26,9.78
17.42534112930298,-10.3,-5.96,4.09,12.58
17.429010152816772,-11.43,-6.87,2.31,13.53
17.43729829788208,-11.04,-5.77,0.3,12.46
17.447944164276123,-7.48,-4.63,-0.64,8.82
17.45780611038208,-5.09,-4.05,-0.96,6.57
17.468905210494995,-4.07,-3.73,-0.99,5.6
17.479238033294678,-3.28,-3.8,-0.86,5.09
17.488590240478516,-2.89,-3.99,-0.94,5.01
17.522159099578857,-2.93,-4.02,-1.06,5.08
17.523812294006348,-3.21,-3.64,-1.1,4.97
17.524944305419922,-3.45,-2.93,-1.31,4.71
17.528760194778442,-3.55,-2.09,-1.51,4.38
17.53819513320923,-3.31,-1.29,-1.17,3.74
17.548367023468018,-2.7,-0.56,-0.18,2.76
17.558460235595703,-1.92,0.01,0.61,2.01
17.568692207336426,-1.23,0.63,0.8,1.59
17.5788631439209,-0.71,1.2,0.58,1.51
17.589418172836304,0.0,1.96,-0.14,1.96
17.62211513519287,0.99,3.01,-1.11,3.35
17.62371516227722,2.13,3.98,-1.87,4.88
17.624857187271118,3.04,4.55,-1.94,5.8
17.628724098205566,3.41,4.75,-1.58,6.05
17.64373016357422,3.17,4.94,-1.32,6.01
17.648571014404297,2.77,5.26,-1.52,6.13
17.659690141677856,2.64,6.19,-1.58,6.91
17.669570207595825,2.88,6.55,-1.55,7.32
17.679428100585938,3.62,6.43,-1.01,7.44
17.690205097198486,4.57,6.26,-0.37,7.75
17.725208282470703,5.42,5.85,-0.19,7.97
17.726596117019653,5.9,4.57,-0.9,7.51
17.72771716117859,5.63,3.62,-2.08,7.0
17.747992038726807,5.0,3.72,-2.99,6.91
17.74949812889099,4.83,3.51,-1.57,6.17
17.76086711883545,5.56,2.83,0.98,6.31
17.76261019706726,7.18,2.46,0.6,7.61
17.777313232421875,8.82,2.53,-2.16,9.42
17.780007123947144,9.81,2.51,-2.19,10.36
17.793769121170044,9.7,1.78,0.62,9.88
17.82187819480896,8.83,1.34,1.65,9.08
17.823426246643066,8.37,1.48,1.02,8.56
17.824530124664307,8.58,1.7,0.66,8.77
17.829873085021973,8.95,1.42,0.7,9.08
17.843854188919067,8.95,0.8,0.45,8.99
17.84984016418457,8.65,0.1,-0.31,8.65
17.86007308959961,8.85,0.12,-1.72,9.01
17.870862007141113,8.86,1.34,-2.42,9.28
17.88076400756836,8.89,2.04,-3.06,9.62
17.891435146331787,5.27,2.81,-3.65,6.99
17.92455005645752,-4.07,1.76,-2.98,5.34
17.925745010375977,-12.78,9.81,0.1,16.11
17.926908016204834,-10.75,13.83,1.35,17.56
17.94821810722351,-0.31,2.65,1.71,3.16
17.95000720024109,2.19,5.81,4.6,7.72
17.961398124694824,4.62,10.57,10.73,15.75
17.96315312385559,10.42,8.76,-3.29,14.0
17.976965188980103,12.77,2.2,-8.33,15.4
17.981359004974365,1.16,-5.1,3.66,6.38
17.994120121002197,-4.81,-5.11,9.81,12.06
18.026737213134766,-2.47,-4.37,0.52,5.04
18.028309106826782,5.1,-1.23,-5.25,7.42
18.029450178146362,10.07,0.61,-1.21,10.16
18.048554182052612,10.66,1.75,-1.52,10.9
18.050384044647217,6.35,1.07,-2.35,6.85
18.06008005142212,0.74,-0.28,-0.73,1.07
18.06190824508667,-2.44,-0.31,0.47,2.5
18.076276302337646,-3.0,0.04,0.44,3.03
18.08173418045044,-1.67,0.45,0.52,1.8
18.09381413459778,0.12,0.31,1.24,1.28
18.12586498260498,0.6,-0.32,1.75,1.87
18.12742519378662,-0.02,-0.77,1.79,1.94
18.1285662651062,-0.88,-0.62,1.4,1.76
18.147869110107422,-1.82,-0.07,0.6,1.91
18.148728132247925,-2.64,0.3,0.19,2.66
18.162195205688477,-2.89,0.25,-0.05,2.9
18.163891315460205,-2.33,0.01,-0.26,2.34
18.177083015441895,-1.35,-0.2,0.35,1.4
18.18274211883545,-0.75,-0.32,0.75,1.1
18.194409132003784,-0.41,-0.21,1.12,1.21
18.223852157592773,-0.31,0.16,0.8,0.87
18.22543215751648,-0.03,0.47,-0.09,0.47
18.226515293121338,0.32,0.16,-0.31,0.47
18.23227620124817,0.41,-0.19,-0.2,0.49
18.242475986480713,0.4,-0.1,-0.23,0.47
18.252252101898193,-0.04,-0.02,-0.1,0.1
18.262689113616943,-0.69,0.01,0.35,0.77
18.27293825149536,-0.91,0.07,0.5,1.04
18.283390998840332,-0.73,0.12,0.33,0.81
18.29346799850464,-0.52,0.17,0.34,0.64
18.326122283935547,-0.57,0.21,0.27,0.66
18.327450275421143,-0.41,0.19,0.01,0.45
18.3285551071167,-0.24,0.16,-0.05,0.29
18.34807825088501,-0.38,0.22,0.22,0.49
18.349218130111694,-0.57,0.31,0.31,0.71
18.361292123794556,-0.76,0.37,0.25,0.88
18.36321210861206,-0.79,0.56,0.14,0.97
18.37737798690796,-0.72,0.6,0.37,1.0
18.383639097213745,-0.47,0.33,0.61,0.83
18.394209146499634,-0.42,0.27,0.42,0.65
18.429092168807983,-0.7,0.52,0.49,1.0
18.430663108825684,-0.93,0.74,0.67,1.36
18.431824207305908,-1.01,0.98,0.68,1.56
18.448710203170776,-0.83,1.31,0.19,1.56
18.44984722137451,-0.85,1.64,-0.08,1.84
18.461244106292725,-1.2,1.8,-0.27,2.18
18.46406602859497,-1.44,2.04,-0.36,2.52
18.477322101593018,-1.31,2.41,0.32,2.76
18.48428201675415,-1.57,2.79,0.88,3.32
18.49763822555542,-2.48,3.23,1.33,4.28
18.525344133377075,-3.36,3.42,1.51,5.02
18.526954174041748,-3.85,3.65,1.24,5.44
18.528125286102295,-4.16,3.54,0.71,5.5
18.548087120056152,-4.38,3.39,-0.04,5.53
18.549233198165894,-4.73,3.17,-0.61,5.72
18.562129020690918,-5.34,3.06,-1.24,6.27
18.5644371509552,-5.77,2.99,-1.39,6.64
18.576626300811768,-5.94,2.94,-1.57,6.81
18.584911108016968,-5.87,3.7,-1.62,7.12
18.595044136047363,-5.97,5.38,-0.39,8.04
18.625868320465088,-7.62,6.34,1.16,9.98
18.627439975738525,-10.64,7.07,2.51,13.01
18.628595113754272,-12.71,8.41,3.15,15.56
18.64822006225586,-12.21,9.23,2.9,15.57
18.64937710762024,-8.47,10.05,2.14,13.31
18.661303997039795,-3.08,11.17,1.84,11.73
18.664947032928467,2.15,11.5,3.8,12.3
18.67739725112915,2.95,10.25,6.46,12.46
18.685540199279785,-1.97,7.94,6.59,10.5
18.69582509994507,-6.61,4.49,5.05,9.45
18.728302001953125,-8.47,1.56,3.78,9.4
18.729894161224365,-9.42,-0.28,2.46,9.73
18.73105001449585,-9.14,-0.87,2.86,9.61
18.7489070892334,-5.58,0.42,5.4,7.77
18.75011920928955,0.78,1.19,1.81,2.3
18.76217031478882,7.31,-1.34,-0.57,7.45
18.765614986419678,5.82,-3.48,2.37,7.18
18.777584075927734,-2.74,-2.75,3.57,5.27
18.78608512878418,-7.25,-3.83,2.94,8.71
18.79657816886902,-10.03,-5.82,1.42,11.68
18.830442190170288,-12.27,-6.11,0.09,13.7
18.83201313018799,-12.66,-4.12,0.18,13.31
18.833165168762207,-8.17,-2.87,0.58,8.67
18.848167181015015,-4.32,-2.01,0.34,4.77
18.849048137664795,-2.71,-1.5,-0.48,3.13
18.864025115966797,-2.33,-1.79,-0.86,3.06
18.867033004760742,-3.34,-2.12,-0.42,3.97
18.878287315368652,-4.36,-2.13,0.03,4.85
18.88700819015503,-4.69,-1.73,-0.1,4.99
18.897375106811523,-4.36,-1.14,-0.32,4.51
18.931502103805542,-3.53,-0.55,-0.16,3.57
18.933078289031982,-2.68,-0.08,0.45,2.71
18.934214115142822,-2.2,0.22,0.73,2.32
18.9484601020813,-1.88,0.59,0.55,2.04
18.9496111869812,-1.42,1.28,0.3,1.93
18.96236515045166,-0.65,2.07,-0.31,2.19
18.9667911529541,0.5,2.69,-1.31,3.03
18.978170156478882,1.76,3.06,-2.17,4.14
18.98721218109131,2.77,3.27,-2.52,4.97
18.99783706665039,3.37,3.36,-2.6,5.42
19.03355598449707,3.6,3.51,-2.65,5.68
19.034914016723633,3.69,3.79,-2.74,5.95
19.03604507446289,3.8,4.4,-2.88,6.48
19.046711206436157,4.03,5.06,-2.93,7.1
19.04787516593933,4.59,6.04,-2.61,8.02
19.06238031387329,5.04,6.14,-2.2,8.24
19.067432165145874,5.11,5.99,-1.72,8.05
19.077853202819824,5.0,5.95,-1.45,7.9
19.088280200958252,5.18,5.99,-1.17,8.0
19.098185062408447,5.85,5.98,-0.49,8.37
19.13173007965088,6.77,5.39,0.52,8.66
19.133310317993164,7.1,3.74,0.77,8.06
19.13441514968872,6.71,2.68,-0.65,7.25
19.147921085357666,6.78,2.71,-1.44,7.44
19.149063110351562,8.11,2.75,0.7,8.59
19.162495136260986,9.62,2.48,2.17,10.16
19.16815209388733,10.35,2.02,1.48,10.64
19.178691148757935,10.84,1.33,0.54,10.93
19.189167976379395,11.23,0.88,-0.02,11.26
19.199212074279785,11.04,0.71,-0.2,11.06
19.23433828353882,10.28,0.61,-0.3,10.3
19.235883235931396,9.59,0.49,-0.57,9.61
19.23700523376465,9.26,0.62,-1.18,9.35
19.24562931060791,7.42,1.71,-1.1,7.69
19.248470306396484,6.47,2.23,-3.71,7.78
19.26176619529724,3.18,2.4,-8.28,9.18
19.26855230331421,-6.96,4.83,-5.45,10.07
19.27911615371704,-13.87,15.21,-0.19,20.58
19.28931713104248,-5.44,12.82,0.47,13.93
19.29952120780945,4.5,3.14,0.85,5.55
19.333418130874634,4.44,5.1,0.52,6.78
19.334975242614746,4.86,9.32,4.94,11.61
19.33614420890808,7.35,2.73,8.19,11.33
19.348323106765747,10.6,-1.73,0.71,10.76
19.349475145339966,5.25,-4.03,5.19,8.41
19.362061023712158,-3.26,-3.88,8.29,9.71
19.369791984558105,-4.95,-1.81,1.91,5.6
19.379716157913208,-1.72,-0.18,-8.21,8.39
19.389947175979614,4.02,1.09,-7.22,8.33
19.400160312652588,7.71,1.27,-2.83,8.31
19.43544101715088,8.94,0.84,-3.29,9.56
19.437007188796997,7.4,-0.55,-2.54,7.84
19.438122272491455,3.69,-0.97,-0.8,3.89
19.44692611694336,0.17,-0.66,1.43,1.58
19.449388027191162,-2.46,-0.21,2.94,3.83
19.462809085845947,-3.58,0.51,3.25,4.86
19.470046043395996,-2.06,0.71,2.1,3.02
19.47993016242981,0.58,0.18,0.8,1.0
19.491215229034424,2.15,-0.25,-0.08,2.16
19.50105118751526,2.37,-0.2,-0.68,2.47
19.533748149871826,1.5,0.05,-0.34,1.53
19.535314083099365,0.03,0.2,0.11,0.23
19.536471128463745,-1.26,0.22,0.38,1.33
19.546125173568726,-1.86,0.12,0.48,1.92
19.55000615119934,-1.62,0.05,0.43,1.67
19.56173801422119,-0.94,-0.03,0.58,1.1
19.570356130599976,-0.41,-0.21,0.63,0.78
19.580796241760254,-0.04,-0.13,0.4,0.42
19.59136199951172,-0.09,-0.12,0.54,0.56
19.601169109344482,-0.23,-0.02,0.65,0.68
19.634883165359497,-0.54,-0.06,0.71,0.89
19.636407136917114,-0.94,-0.06,0.41,1.02
19.637476205825806,-0.92,-0.01,0.09,0.92
19.647014141082764,-0.87,0.15,0.06,0.88
19.65052604675293,-0.54,0.29,0.01,0.61
19.662445068359375,-0.37,0.39,0.12,0.55
19.67149519920349,-0.81,0.28,0.4,0.94
19.681583166122437,-1.24,0.18,0.67,1.42
19.69209909439087,-1.45,0.17,0.91,1.72
19.701757192611694,-1.44,0.18,1.07,1.8
19.73643398284912,-1.25,0.12,0.96,1.58
19.737964153289795,-1.21,0.12,0.68,1.39
19.739006996154785,-0.89,0.07,0.72,1.14
19.746097087860107,-0.64,0.2,0.7,0.96
19.75120520591736,-0.53,0.32,0.39,0.73
19.76223611831665,-0.44,0.26,0.16,0.53
19.772034168243408,-0.35,0.1,0.29,0.46
19.782402992248535,-0.45,0.23,0.4,0.64
19.79248809814453,-0.89,0.49,0.7,1.23
19.802685260772705,-1.42,0.9,0.51,1.75
19.837631225585938,-1.64,1.34,0.19,2.12
19.839210033416748,-1.22,1.59,0.06,2.0
19.84035015106201,-0.49,2.05,-0.04,2.1
19.846027135849,-0.59,2.77,-0.24,2.84
19.851963996887207,-1.2,3.02,-0.49,3.28
19.862267017364502,-1.93,2.92,-0.67,3.56
19.87215805053711,-2.51,2.97,-0.97,4.0
19.882886171340942,-2.82,3.16,-1.06,4.36
19.893311023712158,-3.67,3.28,-1.32,5.09
19.90362024307251,-4.5,3.6,-1.48,5.94
19.93658709526062,-5.09,3.77,-1.38,6.48
19.93817114830017,-5.59,3.91,-1.24,6.93
19.939305305480957,-6.13,4.74,-0.96,7.8
19.94624900817871,-7.22,5.68,-1.41,9.29
19.952354192733765,-8.05,6.54,-1.5,10.47
19.962863206863403,-9.23,7.03,-0.97,11.64
19.972910165786743,-10.85,6.97,-0.03,12.89
19.98340606689453,-12.64,7.81,1.01,14.89
19.993860244750977,-13.46,9.14,2.09,16.4
20.00361919403076,-10.61,9.1,2.23,14.15
20.036448001861572,-4.08,9.08,0.92,9.99
20.03798532485962,1.48,9.66,1.13,9.83
20.03910732269287,3.59,10.55,4.07,11.86
20.046407222747803,0.14,8.37,6.9,10.84
20.052967071533203,-5.03,3.95,6.42,9.06
20.063526153564453,-8.16,0.96,4.5,9.36
20.07355308532715,-8.65,-0.73,3.61,9.4
20.084500312805176,-7.42,-1.52,3.27,8.24
20.09407615661621,-4.29,-1.03,3.58,5.68
20.104351043701172,1.51,1.54,1.76,2.78
20.139616012573242,8.08,-0.27,0.41,8.09
20.141180992126465,5.8,-1.77,1.83,6.33
20.142296314239502,-1.85,-1.6,2.94,3.82
20.146151065826416,-6.75,-3.74,3.32,8.4
20.16243028640747,-10.67,-5.59,4.28,12.78
20.164287090301514,-13.64,-6.48,4.53,15.76
20.177284240722656,-14.32,-4.82,3.87,15.59
20.184763193130493,-10.31,-3.14,3.17,11.23
20.1946063041687,-6.39,-2.55,2.63,7.36
20.20521306991577,-4.78,-2.51,1.96,5.74
20.237592220306396,-4.12,-2.67,1.44,5.11
20.238941192626953,-4.02,-2.53,0.89,4.83
20.240068197250366,-3.96,-2.01,0.17,4.44
20.24641513824463,-3.45,-1.19,-0.7,3.71
20.254218101501465,-2.58,-0.34,-1.19,2.86
20.264998197555542,-1.42,0.3,-1.33,1.96
20.274797201156616,0.05,0.81,-1.16,1.41
20.285099983215332,1.55,1.16,-0.89,2.13
20.295546054840088,2.64,1.25,-0.75,3.01
20.30561399459839,3.03,1.26,-0.7,3.35
20.339630126953125,2.88,1.31,-0.62,3.22
20.341185092926025,2.68,1.58,-0.48,3.14
20.34233808517456,2.71,1.96,-0.44,3.37
20.34635829925537,2.76,2.31,-0.49,3.63
20.361846208572388,2.83,2.52,-0.49,3.82
20.36529016494751,2.95,2.62,-0.39,3.96
20.377358198165894,3.14,2.73,-0.29,4.17
20.385940074920654,3.31,2.8,-0.24,4.34
20.39597225189209,3.35,3.08,-0.19,4.55
20.406548976898193,3.75,3.72,-0.29,5.29
20.44006609916687,4.68,4.43,-0.64,6.47
20.44144105911255,5.68,4.86,-0.89,7.52
20.44255828857422,6.06,4.75,-0.29,7.7
20.446343183517456,5.65,4.09,0.2,6.97
20.46200919151306,4.85,3.4,0.05,5.92
20.465869188308716,4.27,3.31,-0.14,5.4
20.477456092834473,4.27,3.75,0.22,5.68
20.486375331878662,4.57,4.08,1.63,6.33
20.496495246887207,4.63,3.65,2.8,6.52
20.50688910484314,4.6,2.9,1.91,5.76
20.542081117630005,5.87,2.91,-0.14,6.55
20.543586254119873,8.5,2.54,-0.21,8.87
20.54472017288208,10.23,1.39,0.65,10.34
20.5645751953125,10.41,0.56,-0.04,10.42
20.56644916534424,9.95,0.54,-1.4,10.06
20.57913613319397,9.8,0.64,-1.99,10.02
20.580867290496826,10.2,0.19,-1.98,10.39
20.59462308883667,10.69,-0.46,-2.19,10.92
20.59685516357422,10.82,-0.56,-2.74,11.17
20.611395120620728,9.13,0.61,-2.66,9.52
20.637954235076904,8.44,0.59,-3.05,8.99
20.639547109603882,7.39,2.23,-5.82,9.66
20.6405611038208,0.21,3.03,-10.72,11.14
20.647090196609497,-12.49,10.95,-0.31,16.61
20.65708827972412,-15.15,18.18,3.85,23.97
20.66733717918396,-4.31,7.82,-1.18,9.0
20.67768430709839,2.04,3.89,-0.98,4.5
20.68789005279541,3.84,8.65,3.31,10.02
20.697569131851196,6.87,4.19,6.79,10.52
20.70798420906067,10.3,-1.53,0.36,10.41
20.744014263153076,7.54,-4.94,3.81,9.78
20.745591163635254,1.77,-4.65,7.28,8.81
20.7467303276062,0.9,-2.26,4.23,4.87
20.766789197921753,1.29,0.05,-3.7,3.91
20.76769709587097,2.48,1.9,-6.64,7.33
20.7814302444458,4.01,2.09,-3.36,5.63
20.78395414352417,4.27,1.15,-2.16,4.92
20.794759273529053,3.44,-0.27,-2.0,3.98
20.798429012298584,1.93,-1.01,-0.06,2.17
20.81195831298828,0.21,-0.89,1.82,2.03
20.844142198562622,-1.03,-0.45,2.8,3.01
20.84573221206665,-1.35,-0.1,2.66,2.98
20.84687900543213,-0.64,0.04,1.34,1.48
20.86564302444458,0.46,-0.01,-0.09,0.46
20.8665132522583,1.16,-0.12,-0.87,1.45
20.880627155303955,1.26,-0.18,-0.9,1.55
20.883000135421753,0.89,-0.1,-0.49,1.02
20.894952297210693,0.2,-0.09,0.26,0.34
20.89866018295288,-0.75,-0.08,0.73,1.04
20.911980152130127,-1.72,0.07,1.01,1.99
20.944339275360107,-2.24,0.13,1.09,2.49
20.945922136306763,-1.9,0.15,0.86,2.09
20.94708824157715,-0.93,0.06,0.62,1.11
20.9656662940979,-0.24,-0.15,0.55,0.61
20.96648597717285,-0.44,-0.07,0.52,0.68
20.979703187942505,-0.71,0.46,0.49,0.97
20.98141098022461,-0.85,0.56,0.28,1.05
20.995291233062744,-0.81,0.16,0.41,0.92
20.999425172805786,-0.7,-0.18,0.67,0.98
21.012314319610596,-0.58,-0.06,0.41,0.71
21.042627096176147,-0.67,0.16,0.39,0.79
21.044220209121704,-0.96,0.25,0.5,1.11
21.045363187789917,-1.04,0.17,0.55,1.18
21.065994262695312,-0.78,0.02,0.62,0.99
21.067115306854248,-0.42,-0.02,0.64,0.76
21.079421043395996,-0.37,0.06,0.45,0.58
21.08112621307373,-0.43,0.22,0.4,0.62
21.095072269439697,-0.42,0.43,0.43,0.73
21.100009202957153,-0.38,0.56,0.59,0.89
21.112378120422363,-0.53,0.73,0.67,1.12
21.143187046051025,-0.77,0.92,0.53,1.31
21.14471411705017,-1.02,0.95,0.26,1.41
21.1457200050354,-1.2,0.9,-0.22,1.51
21.16623020172119,-1.19,0.94,-0.37,1.56
21.16736602783203,-1.06,1.06,-0.5,1.58
21.180330276489258,-1.24,1.31,0.08,1.8
21.182703018188477,-1.36,1.81,0.41,2.3
21.194985151290894,-1.43,2.28,0.63,2.76
21.200504302978516,-1.64,2.81,0.58,3.3
21.212435245513916,-1.88,3.37,0.22,3.86
21.244757175445557,-2.38,3.55,0.02,4.27
21.246309280395508,-3.2,3.55,-0.15,4.78
21.24733829498291,-4.07,3.41,-0.15,5.31
21.26665210723877,-4.92,3.18,-0.09,5.85
21.268463134765625,-5.59,3.01,-0.12,6.35
21.280535221099854,-5.9,2.86,-0.29,6.56
21.282348155975342,-6.15,2.93,-0.99,6.88
21.29516315460205,-6.04,3.62,-1.12,7.13
21.301419258117676,-5.24,4.54,-0.41,6.94
21.31291627883911,-5.42,4.72,0.64,7.21
21.34494400024414,-7.41,4.98,1.68,9.08
21.346524238586426,-9.75,6.1,2.07,11.68
21.347666263580322,-11.14,6.74,2.68,13.29
21.366368293762207,-10.81,7.22,2.82,13.3
21.36750817298889,-8.71,8.48,2.22,12.35
21.381609201431274,-4.34,10.22,1.43,11.19
21.384000301361084,0.52,9.27,2.58,9.63
21.39545726776123,1.67,8.73,2.93,9.35
21.401751041412354,-1.02,7.8,3.15,8.47
21.413209199905396,-4.16,4.3,3.21,6.78
21.444855213165283,-6.47,1.82,3.17,7.43
21.44642925262451,-7.52,-0.02,2.94,8.07
21.447585105895996,-7.28,-1.41,2.99,7.99
21.467522144317627,-5.55,-0.9,4.34,7.1
21.46937131881714,-1.19,0.53,1.81,2.23
21.479857206344604,3.28,-1.28,-1.34,3.76
21.481917142868042,0.09,-1.86,-0.3,1.88
21.49544620513916,-6.18,-1.5,1.02,6.44
21.503364086151123,-9.69,-2.75,1.91,10.25
21.516945123672485,-11.56,-3.89,2.66,12.48
21.541627168655396,-11.5,-4.28,2.39,12.5
21.54360008239746,-8.97,-3.83,1.54,9.87
21.545351028442383,-5.99,-3.04,0.77,6.76
21.552228212356567,-4.66,-2.33,0.02,5.21
21.562703132629395,-3.54,-2.05,-0.3,4.1
21.572548151016235,-2.64,-1.99,-0.47,3.33
21.582585096359253,-2.42,-2.02,-0.63,3.21
21.59328818321228,-3.04,-1.82,-0.76,3.62
21.60304021835327,-3.69,-1.43,-0.63,4.0
21.61358118057251,-3.73,-0.98,-0.21,3.86
21.647268295288086,-3.02,-0.44,0.12,3.05
21.648612022399902,-2.08,0.06,0.13,2.08
21.649741172790527,-1.06,0.53,-0.15,1.19
21.666665077209473,0.15,0.89,-0.65,1.11
21.667818069458008,1.3,1.14,-1.1,2.04
21.68035912513733,2.24,1.34,-1.42,2.97
21.683101177215576,2.78,1.53,-1.63,3.56
21.69563317298889,2.98,1.75,-2.03,4.0
21.70356798171997,3.19,1.97,-2.51,4.51
21.714049100875854,3.55,2.35,-2.91,5.15
21.746050119400024,3.81,2.72,-3.13,5.63
21.74761199951172,3.88,2.85,-3.01,5.67
21.748749256134033,3.85,2.92,-2.58,5.47
21.766364097595215,3.93,3.05,-2.06,5.38
21.76719903945923,4.11,3.27,-1.62,5.49
21.779659271240234,4.42,3.66,-1.39,5.9
21.783664226531982,4.91,4.1,-1.38,6.54
21.79579520225525,5.3,4.2,-1.28,6.88
21.80437421798706,5.41,4.01,-0.95,6.8
21.814502239227295,5.5,3.91,-0.65,6.77
21.84904909133911,5.87,3.84,-0.57,7.03
21.85063600540161,6.17,3.68,-0.42,7.19
21.851776123046875,6.13,3.43,0.49,7.04
21.86695623397827,6.09,3.17,1.78,7.09
21.868370056152344,6.37,2.71,2.4,7.32
21.87997531890869,6.93,2.42,1.66,7.52
21.884311199188232,7.91,2.26,0.75,8.26
21.895438194274902,9.01,1.77,1.06,9.24
21.904924154281616,9.76,1.23,1.08,9.89
21.915410041809082,10.23,0.72,0.06,10.25
21.950767993927002,10.98,0.47,-1.46,11.08
21.952369213104248,12.22,0.4,-2.55,12.48
21.953513145446777,12.98,0.56,-3.06,13.34
21.96491527557373,10.47,1.82,-1.88,10.79
21.966031074523926,7.84,1.65,-2.04,8.26
21.980849266052246,3.45,1.03,-4.13,5.47
21.98499822616577,-7.59,0.53,-1.18,7.69
21.996198177337646,-17.03,8.47,0.46,19.02
22.00534725189209,-13.14,16.05,-0.22,20.74
22.0157732963562,0.49,6.81,1.73,7.04
22.049270153045654,4.12,4.99,2.74,7.02
22.0509352684021,5.73,8.7,5.65,11.85
22.052070140838623,9.5,3.63,5.6,11.6
22.06666612625122,13.71,-1.49,-4.02,14.36
22.06781315803528,9.78,-1.84,-0.13,9.95
22.079684257507324,-1.4,-1.68,5.66,6.06
22.08553409576416,-4.99,-1.18,0.68,5.17
22.096508026123047,-2.03,-0.74,-5.2,5.63
22.1062650680542,5.07,0.11,-2.07,5.47
22.116639137268066,8.1,0.91,-0.99,8.21
22.150418281555176,7.17,0.74,-1.57,7.37
22.15197515487671,3.23,-0.35,0.06,3.24
22.15312099456787,-0.56,-0.21,0.93,1.1
22.16530132293701,-2.21,0.25,1.17,2.51
22.166447162628174,-1.59,0.3,1.27,2.05
22.180668115615845,-0.04,0.14,0.89,0.9
22.186115264892578,0.47,-0.2,0.96,1.08
22.19661021232605,-0.11,-0.48,1.21,1.3
22.2067711353302,-0.91,-0.51,1.44,1.77
22.21751117706299,-1.65,-0.34,1.26,2.1
22.25387215614319,-2.28,-0.05,0.93,2.46
22.255444049835205,-2.56,0.17,0.63,2.64
22.256474018096924,-2.04,0.13,0.41,2.08
22.264055252075195,-0.6,-0.02,0.2,0.63
22.266385078430176,0.89,-0.21,0.06,0.91
22.279906272888184,1.39,-0.31,0.0,1.42
22.286907196044922,1.1,-0.1,-0.3,1.14
22.297239303588867,0.5,0.1,-0.14,0.52
22.307536125183105,0.29,0.08,-0.15,0.33
22.317630290985107,0.28,0.1,-0.26,0.39
22.355631113052368,0.03,0.0,-0.09,0.09
22.357223987579346,-0.24,-0.07,0.14,0.28
22.358344078063965,-0.53,-0.1,0.34,0.63
22.363943099975586,-0.67,-0.2,0.84,1.09
22.36697220802307,-0.62,-0.04,0.97,1.15
22.380296230316162,-0.59,0.02,1.09,1.23
22.387299060821533,-0.74,0.11,1.17,1.38
22.39809513092041,-0.7,0.17,1.15,1.35
22.407976150512695,-0.65,0.32,0.75,1.04
22.418337106704712,-0.67,0.48,0.23,0.85
22.452287197113037,-0.52,0.37,0.07,0.64
22.45377206802368,-0.49,0.27,0.21,0.59
22.4549822807312,-0.66,0.29,0.45,0.84
22.464107036590576,-0.81,0.48,0.46,1.04
22.467525005340576,-0.98,0.65,0.56,1.3
22.48017930984497,-1.24,0.53,0.62,1.48
22.48790216445923,-1.37,0.24,0.63,1.52
22.4985933303833,-1.19,0.13,0.62,1.34
22.508615016937256,-1.09,0.47,0.41,1.25
22.521063327789307,-1.28,0.48,0.49,1.45
22.548492193222046,-1.15,0.6,0.65,1.45
22.54993724822998,-0.82,0.89,0.61,1.35
22.55108404159546,-0.7,1.05,0.36,1.31
22.568539142608643,-1.04,1.06,0.23,1.5
22.569221019744873,-1.85,0.92,0.67,2.17
22.580711126327515,-2.41,1.13,0.74,2.76
22.5889949798584,-2.51,1.76,0.99,3.22
22.599093198776245,-2.57,2.48,1.14,3.74
22.609578132629395,-2.51,2.96,0.85,3.97
22.619384288787842,-2.44,3.13,0.09,3.96
22.656192302703857,-2.23,3.16,-1.04,4.0
22.657758235931396,-2.5,3.04,-2.26,4.53
22.658948183059692,-3.12,2.8,-2.55,4.9
22.664119243621826,-3.4,2.65,-2.79,5.13
22.668739318847656,-3.46,2.69,-2.39,4.99
22.68034601211548,-3.85,3.0,-1.59,5.13
22.689688205718994,-4.51,4.05,-0.78,6.11
22.699676990509033,-5.4,5.78,0.68,7.93
22.710169315338135,-6.45,5.97,2.4,9.11
22.72014331817627,-8.59,5.51,3.2,10.69
22.75449013710022,-10.53,6.41,3.28,12.75
22.756091117858887,-10.91,6.97,3.32,13.36
22.757228136062622,-10.0,7.21,3.04,12.69
22.76422119140625,-7.01,8.35,1.43,10.99
22.769326210021973,-2.28,10.04,0.72,10.32
22.780294179916382,0.89,9.82,3.47,10.45
22.78975200653076,-0.76,9.93,5.34,11.3
22.800235271453857,-4.79,8.91,5.21,11.37
22.81072211265564,-7.81,5.35,4.3,10.39
22.82076406478882,-9.24,2.72,3.92,10.39
22.854934215545654,-9.75,0.94,4.14,10.63
22.85649609565735,-8.56,0.28,3.76,9.35
22.857638120651245,-4.53,0.56,3.08,5.5
22.86433720588684,1.32,2.3,0.97,2.82
22.87046217918396,7.45,0.19,-0.21,7.45
22.88040828704834,5.49,-1.36,1.01,5.74
22.890390157699585,-1.25,-1.55,2.49,3.18
22.900790214538574,-6.06,-3.44,3.45,7.77
22.910956144332886,-9.55,-5.01,4.5,11.68
22.921404123306274,-11.88,-5.95,4.59,14.05
22.956772327423096,-11.59,-5.23,3.77,13.26
22.95837926864624,-7.97,-4.25,3.06,9.53
22.959559202194214,-5.75,-3.4,2.42,7.1
22.96427631378174,-4.45,-3.02,1.94,5.71
22.970513105392456,-3.24,-2.86,1.36,4.53
22.98114824295044,-2.61,-2.49,0.57,3.65
22.99121618270874,-3.12,-2.12,-0.19,3.77
23.00137710571289,-4.1,-1.73,-0.21,4.45
23.011720180511475,-4.44,-0.97,0.05,4.54
23.022054195404053,-3.59,-0.05,-0.24,3.59
23.05443000793457,-1.74,0.61,-0.93,2.06
23.056000232696533,0.35,0.75,-1.65,1.84
23.05714702606201,2.2,0.79,-2.49,3.41
23.064664125442505,3.37,0.94,-3.18,4.72
23.071105003356934,3.67,1.07,-3.17,4.96
23.08160400390625,3.4,0.88,-2.73,4.44
23.091649055480957,3.08,0.66,-2.5,4.02
23.102116107940674,2.83,0.81,-2.63,3.94
23.112377166748047,2.64,1.08,-2.67,3.9
23.12246799468994,2.57,1.31,-2.29,3.68
23.156540155410767,2.81,1.58,-1.73,3.65
23.158112049102783,3.27,1.86,-1.28,3.97
23.159274101257324,3.61,2.12,-1.2,4.35
23.164417266845703,3.84,2.51,-1.17,4.73
23.172054290771484,4.18,3.12,-1.02,5.31
23.18229103088379,4.81,3.62,-0.92,6.08
23.192301273345947,5.31,3.74,-0.65,6.52
23.202855110168457,5.23,3.81,-0.3,6.47
23.21303415298462,4.62,3.69,-0.08,5.91
23.223358154296875,3.94,3.47,0.14,5.25
23.258679151535034,3.86,3.4,0.36,5.15
23.26026725769043,4.52,3.33,0.53,5.63
23.261407136917114,5.38,2.62,0.48,6.0
23.265014171600342,5.7,1.65,0.33,5.94
23.27229928970337,5.71,2.04,0.49,6.08
23.283244132995605,6.09,2.57,1.99,6.9
23.29301404953003,6.9,2.48,3.97,8.33
23.303293228149414,7.79,2.28,3.14,8.7
23.31331205368042,8.48,2.12,0.99,8.79
23.323739051818848,8.83,1.95,0.95,9.09
23.35707998275757,8.67,1.55,1.86,9.0
23.35865831375122,8.1,2.13,1.05,8.44
23.3598370552063,7.7,1.88,-0.78,7.96
23.364657163619995,10.01,1.83,-4.41,11.09
23.37328314781189,11.04,2.88,-6.88,13.32
23.383517265319824,6.24,3.2,-10.37,12.51
23.393341064453125,-5.17,5.79,-6.66,10.22
23.404426097869873,-10.45,10.39,-0.09,14.73
23.413904190063477,-3.25,8.29,-0.08,8.9
23.42418909072876,3.71,4.15,1.87,5.87
23.458773136138916,5.45,4.88,3.22,7.99
23.460379123687744,6.67,6.59,5.75,10.99
23.46152400970459,8.47,1.4,6.89,11.0
23.46563410758972,7.96,0.83,-0.57,8.02
23.473453044891357,-0.84,1.14,-1.01,1.73
23.48398518562317,-7.06,-0.81,2.16,7.42
23.493972301483154,-8.44,-0.57,4.57,9.61
23.504889011383057,-3.69,-1.83,2.35,4.74
23.51421618461609,3.62,-1.34,-3.76,5.38
23.524545192718506,7.97,-0.2,-4.1,8.96
23.556703090667725,8.33,0.03,-1.53,8.46
23.55829620361328,4.95,0.03,-0.71,5.0
23.559393167495728,0.82,-0.4,0.53,1.05
23.564844131469727,-2.17,-0.65,1.12,2.52
23.574936151504517,-3.35,0.01,0.74,3.43
23.585222244262695,-1.88,0.29,1.03,2.16
23.59493398666382,0.59,-0.07,0.88,1.06
23.605195999145508,2.05,-0.36,0.53,2.14
23.615029096603394,2.31,-0.59,0.63,2.46
23.62560224533081,1.94,-0.62,0.65,2.13
23.65974521636963,1.45,-0.36,0.18,1.5
23.661314010620117,1.0,-0.01,-0.21,1.02
23.662455081939697,0.57,0.19,-0.18,0.62
23.664995193481445,0.3,0.09,0.1,0.32
23.674882173538208,0.34,-0.1,0.28,0.45
23.685208320617676,0.57,-0.22,0.6,0.85
23.69543218612671,0.65,-0.2,0.73,0.99
23.70555019378662,0.63,-0.01,0.45,0.77
23.715715169906616,0.55,0.09,0.29,0.62
23.725651264190674,0.64,0.1,0.11,0.65
23.75541925430298,0.87,0.06,-0.14,0.88
23.757025241851807,0.99,0.05,-0.27,1.02
23.758166313171387,1.03,0.13,-0.15,1.04
23.765486240386963,0.71,0.09,-0.08,0.72
23.77564311027527,0.07,0.07,0.35,0.36
23.78589415550232,-0.93,0.11,0.98,1.35
23.79610514640808,-2.34,0.2,1.04,2.56
23.80637502670288,-3.3,0.18,1.16,3.5
23.816835165023804,-3.22,0.09,1.2,3.43
23.827182292938232,-2.53,0.11,1.09,2.75
23.862664222717285,-1.98,0.3,1.05,2.26
23.86425018310547,-1.7,0.42,0.79,1.92
23.865417003631592,-1.4,0.24,0.72,1.59
23.886306285858154,-1.2,0.09,0.83,1.46
23.88812518119812,-1.23,0.2,0.86,1.51
23.897592067718506,-1.23,0.23,0.75,1.45
23.899309158325195,-0.98,0.09,0.7,1.2
23.913772106170654,-0.56,0.1,0.97,1.12
23.916790008544922,-0.63,0.43,0.94,1.21
23.930471181869507,-1.03,0.89,0.7,1.53
23.96295404434204,-1.11,1.22,0.49,1.72
23.964579105377197,-0.8,1.25,-0.08,1.48
23.96571922302246,-0.23,1.34,-1.03,1.7
23.982346057891846,-0.14,1.71,-1.18,2.08
23.983500003814697,-0.73,1.93,-0.57,2.14
23.998233318328857,-1.44,2.07,0.24,2.53
23.999978065490723,-1.93,2.18,0.88,3.04
24.013407230377197,-1.95,2.43,1.13,3.31
24.017494201660156,-2.19,2.73,1.26,3.71
24.03062629699707,-2.9,3.04,1.31,4.4
24.057919025421143,-3.73,3.23,0.95,5.02
24.059550285339355,-3.89,3.48,0.13,5.22
24.06069326400757,-3.62,3.78,-0.55,5.26
24.06734013557434,-3.87,3.94,-1.12,5.63
24.080610275268555,-4.62,4.37,-1.67,6.57
24.087581157684326,-5.15,5.29,-1.51,7.53
24.097437143325806,-6.06,6.29,-0.69,8.76
24.108538150787354,-8.18,6.38,0.11,10.37
24.11823320388794,-10.4,6.5,0.59,12.27
24.128555297851562,-11.45,7.33,1.09,13.63
24.16340923309326,-11.76,7.65,1.98,14.16
24.164749145507812,-11.46,8.38,3.09,14.52
24.165893077850342,-9.4,10.09,3.58,14.24
24.18481731414795,-4.87,10.4,3.83,12.1
24.186562061309814,-0.26,10.3,4.02,11.05
24.19737720489502,0.96,9.48,4.44,10.51
24.199137210845947,-1.54,5.75,4.05,7.19
24.213330268859863,-5.09,3.14,3.04,6.7
24.218629121780396,-8.02,1.18,3.25,8.73
24.23071312904358,-9.86,-0.33,4.21,10.72
24.261059284210205,-8.49,-1.28,4.72,9.79
24.26264214515686,-3.8,-0.47,4.69,6.05
24.26377010345459,3.06,0.12,1.01,3.22
24.284526109695435,8.17,-2.57,-1.14,8.64
24.28568720817566,2.33,-2.54,0.22,3.45
24.29871129989624,-4.85,-2.48,1.07,5.55
24.301083087921143,-8.56,-4.38,1.7,9.76
24.313308238983154,-11.47,-5.68,2.87,13.11
24.319475173950195,-12.97,-5.55,2.97,14.41
24.33061909675598,-9.97,-4.74,2.44,11.3
24.36577820777893,-6.02,-4.21,2.05,7.62
24.367351055145264,-4.69,-3.57,1.26,6.02
24.3685040473938,-3.85,-3.35,0.65,5.14
24.38473916053772,-3.33,-3.4,0.54,4.78
24.386455059051514,-3.29,-3.24,0.43,4.63
24.398956298828125,-3.24,-2.78,0.31,4.28
24.40067720413208,-3.26,-2.24,0.36,3.97
24.412727117538452,-3.4,-1.56,0.33,3.75
24.420045137405396,-3.21,-0.7,0.35,3.3
24.430757999420166,-2.4,0.16,0.43,2.44
24.461748123168945,-1.3,1.01,0.02,1.64
24.463337182998657,-0.29,2.16,-1.24,2.5
24.464487075805664,1.1,3.26,-2.95,4.53
24.48480224609375,2.87,3.96,-4.06,6.35
24.486000061035156,4.44,4.13,-4.05,7.29
24.49720311164856,5.2,4.03,-3.64,7.51
24.500015258789062,4.99,3.88,-3.41,7.18
24.515204191207886,4.22,3.94,-3.4,6.7
24.520440101623535,3.69,4.42,-3.44,6.7
24.53069829940796,3.62,4.66,-2.92,6.58
24.560625076293945,3.58,4.4,-1.88,5.97
24.56220531463623,3.67,4.32,-1.29,5.81
24.563348293304443,4.08,4.59,-1.24,6.26
24.570260047912598,4.77,4.9,-1.32,6.96
24.58103609085083,5.67,4.6,-1.25,7.4
24.59050416946411,6.18,3.7,-0.91,7.26
24.601214170455933,6.12,2.94,-0.67,6.82
24.610705137252808,5.81,3.06,-0.32,6.57
24.62123727798462,5.49,3.42,1.1,6.56
24.631349086761475,4.76,3.05,3.1,6.44
24.664113998413086,3.47,2.47,3.06,5.24
24.66546630859375,2.59,2.59,1.13,3.83
24.666550159454346,3.49,2.59,1.29,4.53
24.685216188430786,5.53,1.64,2.81,6.41
24.686927318572998,7.23,0.71,2.38,7.64
24.698012113571167,8.45,0.5,0.6,8.48
24.701909065246582,9.39,0.9,-0.96,9.48
24.713581085205078,9.69,0.87,-1.6,9.85
24.721906185150146,9.15,0.07,-1.88,9.34
24.732009172439575,8.89,-0.98,-2.26,9.22
24.766184329986572,9.79,-1.66,-3.06,10.39
24.767762184143066,11.09,-1.98,-3.92,11.92
24.768903255462646,11.31,-0.86,-4.74,12.29
24.784492015838623,9.67,1.38,-4.35,10.69
24.785239219665527,7.53,3.14,-4.23,9.18
24.79858112335205,-0.72,2.56,-4.47,5.2
24.802165031433105,-13.28,7.74,2.02,15.5
24.813868045806885,-17.63,20.47,1.7,27.06
24.822824001312256,-5.44,12.3,-0.64,13.46
24.83264398574829,2.77,2.21,1.17,3.73
24.867286205291748,4.04,3.6,-0.13,5.41
24.868840217590332,6.73,2.35,3.76,8.05
24.86998701095581,8.71,-1.98,7.36,11.57
24.8851261138916,8.79,-4.24,5.03,10.97
24.886449098587036,3.8,-1.21,2.01,4.46
24.897735118865967,1.33,0.39,1.47,2.02
24.90241003036499,0.88,1.25,-0.26,1.55
24.913729190826416,0.94,1.87,-2.8,3.49
24.923192024230957,1.72,1.46,-3.65,4.29
24.93320322036743,2.77,0.41,-2.75,3.92
24.969637155532837,3.17,-0.34,-1.66,3.59
24.971214294433594,2.38,-0.49,-0.04,2.43
24.972365140914917,0.8,-0.38,2.16,2.33
24.983091115951538,-0.84,-0.44,3.54,3.66
24.98426103591919,-1.94,-0.46,3.33,3.88
24.998740196228027,-2.2,-0.34,2.31,3.2
25.002929210662842,-1.61,-0.29,1.11,1.97
25.014292240142822,-0.62,-0.26,0.03,0.67
25.023775100708008,0.1,-0.16,-0.62,0.64
25.034221172332764,0.3,-0.03,-0.6,0.67
25.06754207611084,0.06,0.01,-0.27,0.27
25.06907820701599,-0.5,-0.01,0.12,0.51
25.070204257965088,-1.0,-0.04,0.57,1.15
25.084065198898315,-1.11,-0.16,0.8,1.37
25.085206031799316,-0.7,-0.21,0.75,1.04
25.098615169525146,-0.02,-0.2,0.64,0.67
25.10360622406006,0.33,-0.02,0.35,0.48
25.11415410041809,0.19,0.33,-0.09,0.39
25.12416911125183,-0.12,0.5,-0.09,0.52
25.134414196014404,-0.11,0.27,0.05,0.29
25.166683197021484,0.11,0.0,0.05,0.12
25.16816520690918,0.28,-0.1,0.32,0.43
25.16927218437195,0.0,0.01,0.48,0.48
25.184718132019043,-0.6,0.08,0.62,0.86
25.18586826324463,-1.07,0.04,0.73,1.29
25.19871997833252,-1.21,0.02,0.8,1.45
25.20411729812622,-1.14,0.02,0.83,1.41
25.214763164520264,-0.98,-0.03,0.85,1.29
25.225009202957153,-0.71,-0.11,0.49,0.86
25.23508930206299,-0.28,-0.32,0.54,0.68
25.26945209503174,-0.04,-0.4,0.5,0.64
25.270979166030884,0.09,-0.39,0.57,0.69
25.272103309631348,0.08,-0.17,0.48,0.51
25.283928155899048,-0.19,0.14,0.72,0.75
25.28512716293335,-0.73,0.53,0.63,1.1
25.299257278442383,-1.06,0.77,0.62,1.44
25.30482530593872,-0.84,0.7,0.64,1.26
25.315373182296753,-0.52,0.47,0.91,1.14
25.325239181518555,-0.49,0.57,1.01,1.25
25.335830211639404,-0.66,1.05,0.93,1.55
25.3731632232666,-0.94,1.51,0.54,1.85
25.374783039093018,-1.36,1.62,0.51,2.17
25.375928163528442,-1.74,1.87,0.23,2.56
25.381996154785156,-1.94,2.31,0.33,3.03
25.38508415222168,-2.15,2.41,0.38,3.25
25.39863920211792,-2.22,2.69,0.43,3.51
25.405680179595947,-2.16,2.6,0.33,3.39
25.41632914543152,-2.14,2.54,0.11,3.32
25.42631220817566,-2.62,2.65,-0.02,3.72
25.436336994171143,-3.14,2.67,-0.09,4.12
25.47065305709839,-3.42,2.73,-0.57,4.41
25.472239017486572,-3.35,3.03,-0.68,4.56
25.473412036895752,-3.85,3.27,-0.59,5.08
25.48324203491211,-4.62,3.58,-0.57,5.87
25.48563313484192,-5.26,4.18,-0.7,6.75
25.500190258026123,-5.53,5.57,-0.9,7.9
25.506118297576904,-5.93,7.07,-0.05,9.22
25.51700520515442,-8.03,7.63,1.07,11.12
25.526722192764282,-11.0,8.29,1.85,13.89
25.536760330200195,-12.81,9.1,2.12,15.85
25.568371295928955,-12.88,9.47,2.29,16.14
25.569961071014404,-10.3,10.45,2.21,14.83
25.5711030960083,-5.34,11.45,2.81,12.94
25.58488917350769,0.79,11.03,2.45,11.32
25.586493015289307,4.52,9.2,5.05,11.42
25.59839916229248,1.74,6.7,7.72,10.36
25.606584072113037,-3.39,3.36,6.84,8.34
25.617860317230225,-6.15,0.3,4.7,7.74
25.627546310424805,-7.13,-1.64,3.87,8.27
25.637693166732788,-6.14,-3.18,4.29,8.13
25.672394275665283,-3.73,-2.8,5.75,7.4
25.673969268798828,1.24,-1.06,2.29,2.81
25.675119161605835,8.59,-3.07,-0.74,9.15
25.6824049949646,8.03,-4.94,2.24,9.69
25.686841011047363,-2.18,-3.52,3.03,5.13
25.69860601425171,-7.54,-4.53,2.7,9.2
25.707693099975586,-10.6,-6.26,3.08,12.68
25.71773099899292,-12.78,-6.24,2.9,14.51
25.727992057800293,-11.98,-4.85,2.44,13.15
25.738458156585693,-7.05,-4.07,2.21,8.43
25.77181315422058,-4.5,-3.08,1.41,5.63
25.773393154144287,-3.58,-2.33,0.51,4.3
25.774519205093384,-2.9,-2.11,0.13,3.58
25.782265186309814,-2.75,-2.07,0.0,3.44
25.78769302368164,-3.07,-2.03,-0.05,3.68
25.79796814918518,-3.39,-1.86,-0.02,3.86
25.808006286621094,-3.37,-1.42,0.11,3.65
25.818287134170532,-2.83,-0.76,0.37,2.95
25.828813076019287,-1.9,-0.1,0.54,1.97
25.83873224258423,-1.01,0.46,0.44,1.19
25.8703670501709,-0.37,1.02,0.04,1.08
25.871946096420288,0.22,1.52,-0.35,1.57
25.873090267181396,0.81,1.78,-0.43,2.0
25.882646083831787,1.27,1.81,-0.49,2.26
25.888302326202393,1.43,1.88,-0.8,2.49
25.898811101913452,1.45,2.1,-1.11,2.78
25.908258199691772,1.45,2.36,-1.15,2.99
25.918902158737183,1.58,2.52,-1.16,3.19
25.929253101348877,1.89,2.57,-0.95,3.32
25.939049243927002,2.13,2.76,-0.76,3.56
25.972707271575928,2.31,3.05,-0.89,3.92
25.97427010536194,2.4,3.19,-0.94,4.1
25.97536611557007,2.57,3.35,-1.02,4.34
25.982586145401,2.95,3.54,-1.11,4.73
25.98861026763916,3.38,3.57,-1.06,5.02
25.999195098876953,3.7,3.45,-0.92,5.14
26.009157180786133,4.01,3.37,-0.8,5.29
26.019435167312622,4.35,3.25,-0.78,5.48
26.030002117156982,4.48,3.04,-0.76,5.46
26.040093183517456,4.5,2.8,-0.78,5.35
26.0747332572937,4.69,2.8,-0.51,5.48
26.076268196105957,5.05,3.1,0.41,5.93
26.077434062957764,5.26,2.97,1.81,6.3
26.079318046569824,4.76,2.23,2.44,5.79
26.089612007141113,3.9,1.93,1.29,4.53
26.09948205947876,3.51,2.23,0.44,4.18
26.109636306762695,3.98,2.13,1.38,4.72
26.12036418914795,4.94,1.45,1.89,5.48
26.130486011505127,5.59,0.67,1.16,5.74
26.14033818244934,6.16,0.35,0.09,6.17
26.173116207122803,6.89,0.4,-0.72,6.93
26.174710273742676,7.65,0.25,-1.26,7.75
26.175847053527832,8.25,-0.08,-1.97,8.48
26.182669162750244,8.37,-0.59,-2.37,8.71
26.189839124679565,7.62,-0.18,-2.48,8.01
26.200414180755615,6.34,0.56,-2.03,6.68
26.210916996002197,7.28,1.42,-2.45,7.81
26.220777988433838,8.64,4.62,-3.31,10.34
26.230939149856567,10.15,5.81,-10.01,15.39
26.241504192352295,0.18,7.8,-3.81,8.68
26.275160312652588,-10.31,11.99,7.87,17.66
26.276754140853882,-4.73,9.06,3.23,10.71
26.277945041656494,2.7,2.73,-0.72,3.9
26.282998085021973,4.58,5.31,3.27,7.73
26.290422201156616,7.21,2.83,5.78,9.66
26.30128526687622,9.5,1.44,-0.74,9.63
26.311585187911987,2.53,-1.71,4.62,5.53
26.32139301300049,-4.72,-3.52,8.04,9.96
26.331523180007935,-5.64,-1.3,1.6,6.0
26.341893196105957,-0.49,-0.23,-4.99,5.01
26.376416206359863,5.9,0.53,-5.39,8.0
26.378023147583008,9.11,0.69,-2.07,9.36
26.379164218902588,7.92,0.26,-2.11,8.2
26.383371114730835,4.34,-0.88,-0.71,4.48
26.391340255737305,0.95,-1.09,1.35,1.97
26.401934146881104,-1.07,-0.39,2.1,2.38
26.411408185958862,-1.85,0.11,1.92,2.66
26.42249298095703,-1.73,0.54,1.05,2.09
26.432040214538574,-0.63,0.49,0.38,0.88
26.442535161972046,0.62,-0.01,0.11,0.62
26.478310108184814,0.98,-0.25,-0.02,1.01
26.479878187179565,0.4,-0.1,0.08,0.42
26.481003284454346,-0.46,0.11,0.25,0.53
26.503118991851807,-1.07,0.15,0.51,1.19
26.504817008972168,-1.38,0.01,0.7,1.54
26.518561124801636,-1.39,-0.02,0.82,1.61
26.523794174194336,-1.08,-0.05,0.93,1.42
26.530694007873535,-0.62,-0.14,0.74,0.97
26.532520294189453,-0.28,-0.07,0.44,0.52
26.547924041748047,-0.19,-0.02,0.36,0.4
26.572087287902832,-0.3,-0.13,0.42,0.53
26.573670148849487,-0.2,-0.08,0.43,0.48
26.5747652053833,0.01,0.08,0.43,0.43
26.582727193832397,0.26,0.17,0.28,0.41
26.592847108840942,0.52,0.13,0.2,0.57
26.602834224700928,0.43,0.15,0.17,0.48
26.612792015075684,0.23,0.32,0.22,0.45
26.623297214508057,0.0,0.53,0.34,0.62
26.634205102920532,-0.24,0.53,0.38,0.69
26.64371418952942,-0.47,0.49,0.43,0.8
26.67772912979126,-0.93,0.38,0.46,1.1
26.679270267486572,-1.31,0.26,0.59,1.46
26.68042802810669,-1.69,0.12,0.73,1.84
26.683123111724854,-1.9,0.19,0.73,2.04
26.69288206100464,-2.06,0.35,0.57,2.16
26.703270196914673,-2.18,0.52,0.61,2.32
26.71379327774048,-2.06,0.82,0.67,2.31
26.723987102508545,-1.72,1.25,0.6,2.2
26.73388910293579,-1.1,1.35,0.54,1.82
26.744084119796753,-0.51,1.35,0.01,1.44
26.776432991027832,-0.31,1.37,-0.24,1.42
26.777904987335205,-0.39,1.37,-0.34,1.46
26.778982162475586,-0.56,1.36,-0.16,1.47
26.783549308776855,-0.71,1.44,0.25,1.62
26.798305988311768,-1.01,1.83,0.72,2.21
26.80384397506714,-1.6,2.2,1.31,3.01
26.813769102096558,-2.17,2.58,1.6,3.73
26.824381113052368,-2.94,2.94,1.75,4.51
26.834678173065186,-3.48,3.21,1.65,5.01
26.84518313407898,-3.99,3.31,1.28,5.33
26.879435062408447,-4.53,3.13,0.73,5.55
26.88078212738037,-4.65,2.77,0.14,5.41
26.881904125213623,-4.72,2.57,-0.52,5.39
26.90198016166687,-5.0,2.52,-0.89,5.66
26.902822017669678,-5.49,2.63,-1.45,6.25
26.916880130767822,-5.73,3.45,-1.76,6.91
26.919398307800293,-5.72,4.65,-1.17,7.46
26.93122410774231,-6.78,5.08,-0.09,8.47
26.935145139694214,-9.34,5.83,0.85,11.04
26.94841718673706,-11.53,8.03,1.58,14.13
26.978991985321045,-11.68,10.47,2.0,15.81
26.980597019195557,-10.04,12.05,2.31,15.85
26.981760025024414,-6.17,12.5,1.49,14.01
27.00213313102722,-0.52,11.44,1.16,11.51
27.00297498703003,2.15,9.18,4.27,10.35
27.016723155975342,-0.66,6.98,6.52,9.57
27.019163131713867,-4.16,3.94,4.85,7.5
27.031450271606445,-5.63,0.9,3.14,6.5
27.035534143447876,-6.23,-1.31,2.91,6.99
27.048513174057007,-5.09,-1.58,2.36,5.82
27.079191207885742,-1.41,-1.07,3.41,3.84
27.080793142318726,5.21,0.64,0.4,5.26
27.081950187683105,12.72,-2.12,-1.4,12.97
27.085328102111816,7.78,-3.59,2.29,8.86
27.095522165298462,-2.8,-2.84,3.32,5.18
27.105525016784668,-8.43,-4.67,3.07,10.11
27.116186141967773,-12.37,-6.18,3.12,14.17
27.126808166503906,-14.97,-5.5,3.41,16.3
27.136165142059326,-14.55,-3.25,3.41,15.29
27.14689016342163,-9.38,-2.81,3.33,10.34
27.18278408050537,-6.75,-2.5,2.56,7.63
27.18411922454834,-6.3,-2.01,1.32,6.74
27.185245990753174,-6.0,-1.85,0.57,6.3
27.202351093292236,-5.71,-1.58,0.03,5.92
27.20319128036499,-5.0,-1.26,-0.33,5.16
27.215702056884766,-3.95,-0.76,-0.7,4.08
27.217464208602905,-2.81,-0.21,-0.68,2.89
27.231399059295654,-1.87,0.27,-0.46,1.94
27.2369601726532,-1.34,0.69,-0.52,1.59
27.249003171920776,-1.13,1.14,-0.73,1.76
27.279494285583496,-0.82,1.6,-0.96,2.03
27.281092166900635,-0.25,2.02,-1.23,2.37
27.282233238220215,0.52,2.3,-1.42,2.75
27.30270528793335,1.18,2.4,-1.54,3.08
27.30386710166931,1.71,2.51,-1.86,3.56
27.31587314605713,2.1,2.62,-2.33,4.08
27.317671298980713,2.37,2.76,-2.64,4.49
27.331539154052734,2.59,2.96,-2.81,4.83
27.33729910850525,2.82,3.08,-2.93,5.1
27.348934173583984,3.03,3.11,-2.91,5.22
27.384125232696533,3.2,3.0,-2.81,5.2
27.3856840133667,3.45,2.92,-2.8,5.31
27.386847019195557,3.81,2.95,-2.79,5.56
27.40293025970459,4.07,3.01,-2.77,5.77
27.404677152633667,4.11,3.27,-2.82,5.96
27.41585612297058,4.15,3.79,-2.6,6.19
27.417678117752075,4.55,4.07,-2.08,6.44
27.431697130203247,5.2,3.71,-1.68,6.6
27.43786907196045,5.43,2.94,-1.68,6.39
27.448867321014404,5.23,2.37,-1.73,5.99
27.4796199798584,5.06,2.38,-1.11,5.7
27.481181144714355,4.96,2.8,0.5,5.71
27.482322216033936,4.44,2.63,2.31,5.65
27.5026912689209,3.1,2.49,2.6,4.75
27.50339126586914,1.9,2.93,1.59,3.83
27.519368171691895,2.46,2.82,1.97,4.22
27.5241060256958,4.95,1.96,2.82,6.02
27.53129816055298,7.06,1.07,2.09,7.44
27.538377285003662,7.9,0.55,0.81,7.96
27.549360275268555,7.98,0.33,-0.01,7.98
27.58090829849243,8.02,0.25,-0.26,8.02
27.582437992095947,8.05,0.12,-0.26,8.05
27.58346915245056,7.88,-0.16,-0.32,7.88
27.58823013305664,7.34,-0.37,-0.34,7.35
27.59882402420044,6.69,0.15,-0.5,6.71
27.609004020690918,5.95,1.24,-0.01,6.07
27.619009017944336,7.66,1.3,-1.27,7.87
27.62923002243042,8.69,4.37,-3.63,10.38
27.639426231384277,9.37,6.52,-9.94,15.13
27.650471210479736,-0.01,6.02,-5.92,8.44
27.681541204452515,-12.5,10.97,5.48,17.51
27.682924270629883,-7.53,11.86,0.95,14.08
27.684086322784424,2.22,3.94,-0.94,4.61
27.702620029449463,4.19,2.34,1.09,4.92
27.703773021697998,4.99,2.65,3.85,6.83
27.71613597869873,6.46,0.92,9.61,11.61
27.71958613395691,7.65,-1.84,8.19,11.35
27.73196315765381,5.81,-0.99,1.79,6.15
27.74023199081421,1.92,1.81,-2.33,3.52
27.750155210494995,0.38,1.71,-1.53,2.32
27.78388214111328,0.25,1.44,-2.34,2.75
27.785468101501465,1.11,1.16,-4.34,4.62
27.786599159240723,2.36,0.56,-4.1,4.76
27.80281114578247,3.45,-0.15,-1.38,3.71
27.803970098495483,3.13,-0.68,0.94,3.33
27.815726280212402,1.28,-0.89,3.2,3.55
27.81992530822754,-1.25,-1.09,4.73,5.01
27.832170009613037,-3.18,-0.99,4.25,5.39
27.84111714363098,-3.23,-0.49,2.46,4.08
27.850890159606934,-1.49,-0.1,0.39,1.54
27.884239196777344,0.6,0.11,-1.1,1.25
27.885793209075928,1.5,0.09,-1.55,2.15
27.886906147003174,1.22,-0.07,-0.96,1.55
27.903295040130615,0.39,-0.28,0.06,0.48
27.90449619293213,-0.73,-0.33,0.89,1.19
27.916311264038086,-1.45,-0.04,1.08,1.8
27.920555114746094,-1.37,0.13,1.03,1.71
27.931631088256836,-0.83,0.0,0.78,1.13
27.941059112548828,0.05,-0.11,0.31,0.33
27.95143222808838,0.76,-0.07,-0.12,0.77
27.987112045288086,0.92,0.16,-0.05,0.93
27.98867416381836,0.31,0.2,0.2,0.41
27.989809036254883,-0.58,0.13,0.38,0.7
28.00133228302002,-0.82,0.08,0.55,0.99
28.0025053024292,-0.62,-0.01,0.69,0.92
28.016799211502075,-0.28,0.03,0.75,0.8
28.021718978881836,-0.03,0.08,0.56,0.56
28.032469272613525,-0.22,0.09,0.66,0.7
28.041887283325195,-0.67,-0.07,1.16,1.34
28.051990032196045,-1.13,-0.22,1.12,1.6
28.08464813232422,-0.99,0.07,0.89,1.33
28.08620023727417,-1.03,0.39,0.72,1.31
28.08732509613037,-1.1,0.42,0.47,1.26
28.09132432937622,-0.81,0.36,0.62,1.08
28.101848125457764,-0.71,0.32,0.53,0.94
28.11181926727295,-0.73,0.36,0.52,0.96
28.12202215194702,-0.82,0.42,0.39,1.0
28.132713317871094,-0.89,0.4,0.28,1.01
28.142380237579346,-0.9,0.25,0.32,0.98
28.152489185333252,-0.75,0.25,0.25,0.82
28.187695026397705,-0.45,0.5,0.49,0.83
28.18907928466797,-0.43,0.71,0.13,0.84
28.190165042877197,-0.75,1.3,0.13,1.5
28.201481103897095,-1.18,1.68,0.26,2.06
28.202630043029785,-1.19,1.67,0.23,2.06
28.215970993041992,-0.95,1.78,-0.22,2.02
28.2223219871521,-0.99,1.9,-0.39,2.17
28.232807159423828,-1.25,1.94,-0.54,2.37
28.24296808242798,-1.64,2.29,-0.4,2.84
28.253562211990356,-2.22,3.11,-0.34,3.83
28.285367012023926,-2.93,3.7,-0.28,4.72
28.28696298599243,-3.71,3.57,-0.25,5.15
28.28813600540161,-4.09,3.45,-0.04,5.35
28.30313205718994,-4.09,3.4,-0.02,5.31
28.304224014282227,-4.26,3.2,-0.29,5.33
28.316862106323242,-4.8,2.86,-0.51,5.61
28.322919130325317,-5.18,2.58,-0.64,5.82
28.33350419998169,-5.97,2.59,-1.0,6.58
28.343773126602173,-7.2,3.33,-1.5,8.07
28.353824138641357,-7.87,4.92,-1.08,9.34
28.38810920715332,-8.63,6.71,0.19,10.93
28.389687061309814,-10.19,7.08,1.49,12.49
28.39083218574524,-10.99,7.42,2.99,13.59
28.401754140853882,-8.89,8.76,2.98,12.83
28.40315008163452,-3.75,9.93,1.25,10.68
28.416272163391113,1.05,10.07,1.26,10.2
28.42345118522644,2.09,10.07,3.54,10.87
28.434391975402832,-1.4,9.5,5.0,10.82
28.444239139556885,-6.08,6.4,5.49,10.39
28.454681158065796,-8.53,3.58,4.97,10.5
28.488213062286377,-8.79,1.41,5.01,10.21
28.48977518081665,-7.42,0.19,3.86,8.36
28.49093532562256,-4.64,0.28,2.31,5.19
28.500961303710938,-0.84,2.44,0.91,2.73
28.50368618965149,5.6,1.77,-0.76,5.92
28.519439220428467,7.04,-1.17,1.09,7.21
28.52387809753418,-0.23,-1.66,3.09,3.51
28.534282207489014,-6.26,-3.44,4.43,8.4
28.545372009277344,-10.4,-5.28,5.39,12.84
28.554829120635986,-12.8,-6.18,4.91,15.03
28.58400321006775,-13.07,-4.9,3.61,14.41
28.585599184036255,-9.34,-3.74,2.69,10.41
28.5867280960083,-6.78,-3.22,1.93,7.74
28.603206157684326,-5.88,-2.73,1.1,6.57
28.604677200317383,-5.07,-2.54,0.22,5.67
28.617547035217285,-4.42,-2.33,-0.67,5.04
28.625259160995483,-4.08,-1.97,-1.28,4.7
28.635210037231445,-3.67,-1.51,-1.34,4.18
28.64547824859619,-2.77,-0.96,-1.16,3.15
28.655842304229736,-1.54,-0.45,-1.17,1.98
28.690542221069336,-0.23,-0.04,-1.22,1.24
28.692116260528564,0.93,0.24,-1.29,1.6
28.693251132965088,1.72,0.51,-1.34,2.23
28.700634002685547,2.12,1.0,-1.52,2.79
28.70513916015625,2.5,1.49,-1.65,3.34
28.71629810333252,2.83,1.58,-1.48,3.56
28.725868225097656,2.76,1.51,-1.27,3.39
28.73618221282959,2.48,1.62,-1.04,3.13
28.74621820449829,2.19,1.82,-0.79,2.95
28.75633430480957,2.17,2.06,-0.59,3.04
28.79084610939026,2.36,2.26,-0.38,3.28
28.792383193969727,2.43,2.41,0.01,3.42
28.79349708557129,2.32,2.54,0.38,3.46
28.80054211616516,2.21,2.74,0.59,3.56
28.80556631088257,2.43,3.11,0.49,3.97
28.81705117225647,2.87,3.64,0.26,4.64
28.82613229751587,3.38,4.11,0.29,5.32
28.836308002471924,4.06,4.57,0.15,6.11
28.846862316131592,4.74,4.62,-0.09,6.61
28.856959104537964,5.07,4.25,-0.18,6.61
28.891640186309814,4.98,3.67,-0.09,6.18
28.89321804046631,4.88,2.73,-0.22,5.59
28.894357204437256,4.93,2.23,-0.58,5.44
28.900757312774658,5.12,2.34,-0.27,5.63
28.906129121780396,5.38,2.24,1.41,5.99
28.916439056396484,5.55,1.97,2.37,6.34
28.926651000976562,5.57,1.93,1.06,5.98
28.937003135681152,5.82,2.04,-0.45,6.18
28.947018146514893,6.3,1.85,0.18,6.56
28.957698106765747,6.46,1.19,1.23,6.68
28.990938186645508,6.51,0.55,0.72,6.57
28.99252700805664,7.03,0.21,-0.34,7.04
28.993682146072388,7.89,-0.09,-0.66,7.91
29.00081515312195,8.69,-0.52,-0.33,8.71
29.00709104537964,9.19,-0.85,-0.28,9.23
29.01762104034424,9.31,-0.69,-0.97,9.38
29.027260303497314,8.88,1.2,-2.19,9.22
29.03800630569458,8.69,1.71,-3.26,9.43
29.047592163085938,8.69,2.41,-4.85,10.23
29.05809497833252,7.6,4.6,-9.51,13.01
29.09273099899292,1.31,7.22,-13.93,15.74
29.094301223754883,-13.01,12.67,2.58,18.34
29.095498085021973,-12.29,12.55,5.82,18.5
29.10114097595215,-0.19,5.58,-1.57,5.79
29.107288122177124,5.42,10.09,5.12,12.54
29.11781620979309,9.35,5.79,8.47,13.88
29.12787914276123,14.03,0.77,-1.55,14.13
29.138521194458008,7.7,-4.22,2.85,9.23
29.14829730987549,0.08,-4.63,5.75,7.38
29.15848398208618,-0.22,-1.33,3.64,3.88
29.19068717956543,2.62,1.03,-1.57,3.22
29.192272186279297,5.16,2.5,-4.97,7.58
29.193413257598877,4.73,1.2,-2.56,5.51
29.200794219970703,0.94,-0.43,0.25,1.06
29.207930088043213,-2.83,-0.63,1.25,3.15
29.218517303466797,-4.79,-0.29,2.43,5.37
29.22832727432251,-4.79,-0.27,3.69,6.05
29.238821983337402,-3.51,-0.7,3.83,5.24
29.249059200286865,-2.11,-0.91,2.64,3.49
29.259595155715942,-1.03,-0.65,0.89,1.5
29.293668270111084,-0.28,-0.34,-0.16,0.46
29.295266151428223,0.16,-0.22,-0.41,0.49
29.296308994293213,0.38,-0.21,-0.72,0.84
29.300753116607666,0.38,-0.21,-0.77,0.88
29.31616711616516,0.3,-0.17,-0.14,0.37
29.318997144699097,0.23,-0.15,0.3,0.4
29.331889152526855,0.21,-0.1,0.11,0.25
29.33974814414978,0.32,-0.07,0.12,0.34
29.349589109420776,0.57,-0.06,0.05,0.57
29.359822273254395,0.75,0.03,-0.27,0.79
29.394952297210693,0.66,-0.05,-0.29,0.72
29.3963680267334,0.49,-0.02,-0.02,0.49
29.397505283355713,0.46,-0.03,0.27,0.53
29.401347160339355,0.27,-0.01,0.51,0.57
29.409107208251953,-0.09,-0.03,0.53,0.53
29.41972017288208,-0.45,0.02,0.58,0.73
29.43013906478882,-0.6,0.04,0.51,0.78
29.440242290496826,-0.57,0.01,0.48,0.74
29.450414180755615,-0.29,0.1,0.22,0.37
29.460686206817627,-0.1,0.11,-0.08,0.16
29.493985176086426,-0.27,0.0,0.12,0.29
29.495638132095337,-0.49,0.13,0.44,0.67
29.496734142303467,-0.71,0.19,0.37,0.82
29.501296043395996,-0.81,0.23,0.89,1.22
29.520065307617188,-0.68,0.1,1.2,1.38
29.52195930480957,-0.29,0.05,1.05,1.09
29.532682180404663,-0.17,0.12,1.02,1.04
29.540627002716064,-0.51,0.17,1.09,1.21
29.551148176193237,-0.72,0.36,0.78,1.12
29.561119079589844,-0.8,0.53,0.8,1.24
29.594009160995483,-1.08,0.62,0.58,1.37
29.595407009124756,-1.12,0.86,0.56,1.51
29.596611976623535,-1.03,1.05,0.7,1.62
29.601261138916016,-0.83,1.32,0.68,1.7
29.616490125656128,-0.67,1.84,0.92,2.16
29.62053108215332,-1.22,2.34,0.98,2.81
29.632196187973022,-1.86,2.75,0.62,3.37
29.641479015350342,-2.3,2.79,0.4,3.63
29.651445150375366,-2.37,2.79,0.01,3.66
29.661811113357544,-2.17,2.82,-0.25,3.56
29.69677209854126,-2.32,2.68,-0.32,3.55
29.69812822341919,-2.79,2.56,-0.43,3.81
29.699246168136597,-2.89,2.56,-0.56,3.9
29.719205141067505,-2.93,2.52,-0.6,3.91
29.72061014175415,-3.23,2.42,-0.64,4.08
29.73386812210083,-3.52,2.32,-0.66,4.26
29.735613107681274,-4.07,2.39,-0.61,4.75
29.75005006790161,-4.71,2.87,-0.42,5.53
29.752496242523193,-5.49,3.84,-0.31,6.7
29.766568183898926,-6.51,5.93,-0.2,8.8
29.79349708557129,-7.67,9.09,0.99,11.93
29.795106172561646,-10.16,10.38,1.98,14.65
29.796321153640747,-11.17,9.28,2.27,14.69
29.80178713798523,-13.78,9.36,1.22,16.7
29.811789989471436,-15.56,9.61,-0.07,18.28
29.822296142578125,-11.05,8.86,-0.52,14.17
29.831987142562866,-4.63,9.31,0.67,10.41
29.842449188232422,1.2,11.08,0.61,11.16
29.852459192276,4.01,9.67,1.89,10.63
29.86320209503174,1.16,5.61,4.04,7.0
29.898624181747437,-3.95,2.79,4.68,6.72
29.900204181671143,-7.37,0.77,4.48,8.65
29.901352167129517,-7.46,-0.7,3.28,8.17
29.921499252319336,-5.11,-0.64,3.11,6.01
29.923352241516113,-0.42,1.63,2.31,2.85
29.933881282806396,5.76,-0.44,-0.88,5.84
29.935623168945312,4.17,-2.77,1.01,5.1
29.949961185455322,-4.3,-2.78,2.55,5.72
29.95305824279785,-9.87,-4.06,3.12,11.11
29.966561317443848,-12.64,-5.45,4.18,14.38
29.993834018707275,-14.21,-5.56,3.76,15.71
29.995466232299805,-11.39,-4.08,2.71,12.39
29.996695041656494,-6.08,-3.21,1.58,7.05
30.002894163131714,-4.1,-2.29,0.13,4.69
30.016746044158936,-3.4,-1.8,-0.87,3.94
30.02354121208191,-2.96,-1.82,-1.06,3.63
30.033140182495117,-2.26,-2.02,-0.89,3.15
30.04387617111206,-1.5,-2.06,-0.48,2.59
30.053839206695557,-1.15,-1.91,-0.21,2.23
30.064374208450317,-0.82,-1.51,-0.37,1.75
30.099234104156494,-0.03,-1.1,-0.71,1.3
30.10060405731201,1.01,-0.65,-1.45,1.88
30.10174798965454,2.26,-0.19,-2.41,3.3
30.121446132659912,3.69,-0.11,-2.85,4.66
30.12327003479004,4.71,-0.41,-2.81,5.49
30.13389301300049,4.79,-0.85,-2.57,5.5
30.135690212249756,4.14,-1.04,-2.33,4.86
30.149731159210205,3.49,-0.9,-1.94,4.09
30.15470314025879,3.08,-0.67,-1.28,3.4
30.167115211486816,2.88,-0.44,-0.46,2.94
30.194210052490234,2.86,-0.22,0.25,2.87
30.19583225250244,2.91,0.05,0.74,3.0
30.19700527191162,2.92,0.39,1.0,3.11
30.204150199890137,2.86,0.82,1.05,3.15
30.2173433303833,2.84,1.34,1.06,3.31
30.224228143692017,2.84,1.95,1.09,3.61
30.234619140625,2.82,2.65,1.1,4.02
30.245097160339355,2.73,3.39,1.13,4.49
30.255226135253906,2.63,4.01,1.37,4.98
30.26561403274536,2.7,4.4,1.93,5.51
30.29994511604309,2.73,4.65,2.6,5.98
30.301331996917725,2.44,4.99,3.04,6.33
30.302468299865723,1.89,5.25,3.12,6.39
30.32193112373352,1.7,5.01,2.87,6.01
30.323779106140137,2.08,4.13,2.56,5.28
30.334489107131958,2.8,3.01,2.11,4.62
30.336163997650146,3.81,2.38,1.24,4.66
30.349750995635986,5.2,2.3,0.15,5.68
30.355512142181396,6.85,2.14,-0.98,7.24
30.366767168045044,8.11,1.61,-1.94,8.49
30.40207529067993,8.13,1.14,-2.62,8.61
30.40363311767578,7.25,1.12,-3.29,8.03
30.404778003692627,6.8,1.02,-3.51,7.72
30.42125916481018,7.79,0.45,-3.14,8.41
30.42291021347046,9.45,-0.39,-2.44,9.76
30.435227155685425,10.14,-1.11,-1.75,10.34
