time,ax,ay,az,atotal
0.011826038360595703,0.17,0.13,-0.27,0.34
0.013847112655639648,0.09,0.13,-0.12,0.19
0.02378702163696289,0.0,0.17,-0.03,0.17
0.03442215919494629,0.02,0.17,-0.07,0.18
0.043726205825805664,0.0,0.09,-0.02,0.09
0.05408120155334473,0.29,0.01,-0.1,0.3
0.06463623046875,0.05,0.13,-0.2,0.24
0.07411623001098633,-0.09,0.17,-0.09,0.21
0.0842132568359375,-0.07,0.15,-0.05,0.17
0.0944070816040039,-0.06,0.15,-0.06,0.17
0.10429000854492188,-0.04,0.18,-0.05,0.19
0.11452198028564453,-0.17,0.21,-0.07,0.27
0.12439727783203125,-0.09,0.18,0.01,0.2
0.13451099395751953,-0.08,0.15,0.06,0.18
0.14455914497375488,-0.08,0.17,0.01,0.18
0.15477705001831055,-0.06,0.15,0.0,0.16
0.16466999053955078,0.19,0.12,-0.08,0.23
0.1746072769165039,0.47,0.03,-0.17,0.5
0.18485498428344727,0.27,-0.06,-0.29,0.4
0.19468307495117188,0.22,-0.09,-0.34,0.41
0.20535516738891602,0.23,0.08,-0.23,0.33
0.2150421142578125,0.09,0.14,-0.09,0.18
0.22545433044433594,0.0,0.09,-0.02,0.09
0.23510026931762695,0.01,0.11,-0.08,0.13
0.24509620666503906,0.06,0.16,-0.2,0.26
0.25516819953918457,0.04,0.14,-0.21,0.25
0.26572227478027344,0.01,0.08,-0.13,0.15
0.27530527114868164,0.03,0.05,-0.1,0.11
0.28544020652770996,0.03,0.1,-0.11,0.15
0.2952311038970947,-0.03,0.03,-0.07,0.08
0.3056221008300781,-0.08,0.06,-0.04,0.1
0.3156890869140625,-0.09,0.15,-0.02,0.17
0.3260781764984131,-0.06,0.16,-0.06,0.18
0.33602118492126465,-0.1,0.14,-0.1,0.19
0.34598612785339355,-0.03,0.11,-0.12,0.16
0.3560032844543457,0.0,0.06,-0.07,0.09
0.3660550117492676,-0.04,0.08,0.0,0.08
0.37616610527038574,-0.03,0.04,0.1,0.11
0.386458158493042,-0.01,0.0,0.15,0.15
0.3960390090942383,0.0,0.05,0.09,0.1
0.40598201751708984,0.03,0.08,0.05,0.09
0.4160013198852539,0.01,0.06,0.06,0.08
0.4258701801300049,0.06,0.06,0.01,0.08
0.43593931198120117,0.11,0.05,-0.02,0.12
0.44645023345947266,-0.01,0.05,0.0,0.05
0.45609116554260254,-0.04,0.1,-0.05,0.11
0.4661421775817871,-0.11,0.14,-0.06,0.18
0.4762861728668213,0.0,0.08,-0.04,0.08
0.4863719940185547,0.04,0.06,-0.01,0.07
0.49614810943603516,0.06,0.09,-0.04,0.11
0.5064091682434082,-0.05,0.11,-0.09,0.15
0.5163650512695312,-0.12,0.16,-0.09,0.21
0.5265941619873047,-0.12,0.16,-0.09,0.21
0.5366032123565674,-0.13,0.03,-0.1,0.16
0.5468010902404785,0.0,0.02,0.03,0.03
0.5567259788513184,-0.02,0.04,0.14,0.14
0.5671591758728027,-0.09,0.06,0.15,0.18
0.5770182609558105,-0.11,0.05,0.19,0.22
0.5869522094726562,-0.12,0.09,0.21,0.25
0.5968942642211914,-0.03,0.09,0.19,0.21
0.6072583198547363,0.06,0.0,0.18,0.18
0.6173992156982422,0.04,-0.03,0.2,0.2
0.6274280548095703,0.02,0.0,0.25,0.25
0.6372101306915283,-0.04,0.07,0.25,0.26
0.647247314453125,-0.05,0.01,0.27,0.27
0.6574831008911133,0.04,-0.02,0.3,0.3
0.6674351692199707,-0.07,0.03,0.28,0.29
0.6778311729431152,-0.13,0.09,0.14,0.21
0.687467098236084,0.08,0.0,0.13,0.15
0.6976561546325684,0.11,-0.09,0.19,0.23
0.7079892158508301,0.07,0.1,0.18,0.21
0.7179412841796875,-0.03,0.12,0.08,0.14
0.7281312942504883,-0.01,0.03,-0.08,0.08
0.7383501529693604,0.28,0.05,0.0,0.28
0.7487993240356445,0.12,0.04,-0.12,0.17
0.7589302062988281,0.04,0.1,-0.22,0.24
0.7690362930297852,0.21,0.12,-0.25,0.34
0.7790312767028809,0.26,0.19,-0.07,0.32
0.7890701293945312,0.09,0.04,-0.07,0.12
0.799370288848877,0.05,0.05,-0.17,0.18
0.8092391490936279,0.05,0.05,-0.09,0.11
0.8193330764770508,0.11,0.1,-0.06,0.16
0.8292891979217529,0.13,0.15,-0.08,0.21
0.8392982482910156,0.09,0.04,0.04,0.1
0.8495771884918213,0.08,0.05,0.18,0.2
0.8599410057067871,0.04,0.04,0.08,0.09
0.8696680068969727,0.07,0.01,0.09,0.11
0.8795380592346191,0.07,0.02,0.13,0.14
0.8897433280944824,0.12,0.06,0.1,0.16
0.8997392654418945,0.02,0.11,0.17,0.2
0.9099152088165283,-0.08,0.07,0.16,0.19
0.9196000099182129,0.05,0.04,0.15,0.16
0.92913818359375,0.09,0.03,0.16,0.18
0.939143180847168,-0.02,0.05,0.15,0.15
0.950127124786377,-0.01,0.05,0.16,0.16
0.9602479934692383,0.08,0.06,0.08,0.12
0.9701831340789795,0.04,0.1,0.04,0.11
0.9807043075561523,0.05,0.09,0.08,0.13
0.9903130531311035,0.08,0.03,0.07,0.11
1.0001530647277832,0.05,0.07,0.04,0.09
1.010457992553711,0.01,0.11,0.08,0.13
1.0204310417175293,0.01,0.09,0.08,0.12
1.0309243202209473,0.07,0.1,0.05,0.13
1.0401372909545898,0.04,0.07,0.12,0.14
1.050666332244873,0.04,0.06,0.21,0.22
1.0606412887573242,0.05,0.11,0.25,0.27
1.0707511901855469,0.12,0.11,0.23,0.28
1.0809731483459473,0.21,0.03,0.06,0.22
1.0912511348724365,0.31,-0.04,-0.14,0.34
1.100696086883545,0.3,-0.05,-0.13,0.33
1.1110153198242188,0.2,-0.05,-0.05,0.21
1.1210341453552246,0.1,-0.05,-0.04,0.11
1.1312642097473145,0.04,0.07,-0.2,0.21
1.1412811279296875,-0.02,0.17,-0.2,0.26
1.1516711711883545,-0.03,0.18,-0.21,0.27
1.1612701416015625,0.0,0.14,-0.24,0.27
1.1715261936187744,0.0,0.16,-0.29,0.33
1.181467056274414,0.01,0.17,-0.27,0.31
1.191603183746338,-0.04,0.16,-0.24,0.29
1.2013130187988281,-0.06,0.15,-0.15,0.22
1.2120110988616943,-0.1,0.08,-0.14,0.18
1.2215712070465088,0.01,0.06,-0.12,0.13
1.2319211959838867,-0.01,0.13,-0.04,0.13
1.2425282001495361,-0.05,0.12,0.05,0.13
1.2519512176513672,-0.03,0.1,0.1,0.14
1.2618660926818848,-0.02,0.09,0.13,0.15
1.2719731330871582,-0.04,0.07,0.18,0.19
1.2819881439208984,-0.05,0.07,0.16,0.18
1.2922053337097168,-0.01,0.08,0.13,0.15
1.30196213722229,0.04,0.06,0.16,0.17
1.312225103378296,0.03,0.05,0.17,0.17
1.3222382068634033,0.04,0.05,0.15,0.16
1.3323230743408203,0.05,0.07,0.13,0.15
1.3423840999603271,0.03,0.06,0.12,0.13
1.3524670600891113,0.08,0.05,0.13,0.16
1.3625202178955078,0.1,0.05,0.09,0.14
1.3726739883422852,0.12,0.04,0.13,0.18
1.3831472396850586,0.06,0.05,0.22,0.23
1.3929243087768555,-0.01,0.03,0.3,0.3
1.4028151035308838,-0.05,0.03,0.22,0.22
1.4133021831512451,-0.09,0.01,0.06,0.1
1.4229421615600586,-0.06,0.11,-0.16,0.2
1.4328901767730713,-0.04,0.17,-0.27,0.32
1.443364143371582,-0.06,0.17,-0.22,0.28
1.4530463218688965,-0.17,0.22,-0.19,0.33
1.4631671905517578,-0.11,0.2,-0.11,0.25
1.4732012748718262,-0.03,0.14,-0.08,0.16
1.4831621646881104,-0.1,0.16,-0.22,0.28
1.4933242797851562,-0.06,0.12,-0.26,0.29
1.5034942626953125,-0.01,0.11,-0.2,0.22
1.5134751796722412,0.02,0.12,-0.14,0.18
1.523543119430542,0.07,0.13,-0.11,0.18
1.5336723327636719,0.07,0.09,-0.09,0.14
1.543539047241211,0.08,0.05,-0.06,0.11
1.5537662506103516,0.04,0.11,-0.05,0.12
1.5641613006591797,0.01,0.12,0.0,0.12
1.5738461017608643,0.03,0.1,-0.01,0.1
1.583847999572754,0.05,0.09,0.0,0.1
1.5939240455627441,0.08,0.04,0.08,0.12
1.6037960052490234,0.08,0.03,0.01,0.08
1.6142241954803467,0.13,0.01,-0.05,0.13
1.6241021156311035,0.21,-0.04,-0.02,0.21
1.6341590881347656,0.19,0.0,0.03,0.19
1.6441771984100342,0.12,0.04,0.06,0.13
1.6544642448425293,0.08,0.07,0.05,0.11
1.6643853187561035,0.08,0.08,0.02,0.11
1.674448013305664,0.13,0.04,0.04,0.14
1.6844861507415771,0.1,0.03,0.02,0.1
1.6945300102233887,0.07,0.04,0.03,0.08
1.7043101787567139,0.13,0.05,0.07,0.15
1.7147202491760254,0.08,0.08,0.04,0.12
1.7247951030731201,0.11,0.07,0.04,0.13
1.7353181838989258,0.06,0.1,0.09,0.14
1.744887113571167,0.06,0.06,0.09,0.12
1.7549941539764404,0.07,0.04,0.0,0.08
1.7650501728057861,0.05,0.04,-0.03,0.07
1.7751402854919434,0.04,0.08,-0.01,0.09
1.7850391864776611,0.04,0.12,-0.05,0.13
1.7954339981079102,0.01,0.15,-0.09,0.17
1.8049640655517578,0.01,0.13,-0.06,0.14
1.8153862953186035,0.01,0.09,-0.03,0.09
1.8252930641174316,0.03,0.07,-0.04,0.08
1.8351950645446777,0.0,0.06,-0.02,0.06
1.845522165298462,-0.05,0.06,0.04,0.08
1.8558192253112793,0.01,0.07,0.08,0.1
1.8655521869659424,0.01,0.11,0.06,0.12
1.875622272491455,0.02,0.12,0.04,0.12
1.885918140411377,0.05,0.08,-0.01,0.09
1.8957011699676514,0.08,0.04,-0.03,0.09
1.9058732986450195,0.03,0.01,0.02,0.03
1.915680170059204,-0.04,0.03,0.05,0.07
1.9251623153686523,-0.06,0.08,0.1,0.14
1.9358291625976562,-0.12,0.12,0.05,0.17
1.9462080001831055,-0.11,0.12,0.03,0.16
1.956153154373169,0.0,0.11,0.01,0.11
1.9661202430725098,-0.03,0.08,-0.02,0.08
1.9765362739562988,-0.07,0.07,0.02,0.1
1.9862432479858398,-0.06,0.07,0.05,0.1
1.9963440895080566,-0.05,0.06,0.1,0.12
2.0061562061309814,-0.06,0.08,0.05,0.11
2.016334056854248,0.0,0.11,0.03,0.11
2.026412010192871,0.01,0.07,0.04,0.08
2.0368261337280273,-0.02,0.03,0.09,0.09
2.0467143058776855,-0.08,0.08,0.16,0.19
2.0569591522216797,0.0,0.11,0.11,0.15
2.066948175430298,0.02,0.03,0.07,0.07
2.0770530700683594,-0.04,-0.03,0.06,0.07
2.0869081020355225,-0.01,0.04,0.02,0.04
2.097529172897339,0.08,0.02,-0.1,0.12
2.1087002754211426,0.09,-0.06,-0.19,0.21
2.117103099822998,0.13,-0.04,-0.09,0.16
2.127063274383545,0.05,0.04,-0.07,0.09
2.137542247772217,0.03,0.11,-0.09,0.14
2.1474781036376953,-0.07,0.13,0.07,0.16
2.1576132774353027,-0.19,0.13,0.26,0.34
2.1674022674560547,-0.2,0.18,0.25,0.36
2.1774392127990723,-0.05,0.17,0.1,0.2
2.1876401901245117,0.15,0.13,0.03,0.2
2.1975691318511963,0.15,0.11,0.1,0.21
2.207501173019409,0.09,0.16,-0.05,0.19
2.218968152999878,0.03,0.16,-0.08,0.18
2.2277421951293945,0.04,0.1,0.07,0.12
2.2379841804504395,0.05,0.06,0.23,0.24
2.2479991912841797,0.08,0.02,0.29,0.3
2.26065731048584,0.12,0.02,0.29,0.31
2.2683000564575195,0.03,0.07,0.29,0.29
2.2787060737609863,0.05,0.08,0.22,0.23
2.2883872985839844,0.18,0.04,0.01,0.18
2.3031182289123535,0.27,-0.03,-0.02,0.27
2.335515022277832,0.15,-0.03,0.12,0.19
2.337606191635132,0.06,0.05,0.15,0.16
2.3386292457580566,0.03,0.05,0.17,0.17
2.3554911613464355,0.05,0.07,0.07,0.11
2.35628604888916,0.02,0.1,0.11,0.15
2.370408058166504,-0.05,0.1,0.14,0.17
2.3728291988372803,0.0,0.07,0.08,0.1
2.384998321533203,0.12,0.05,0.0,0.13
2.3883023262023926,0.07,0.02,-0.16,0.17
2.4016900062561035,0.04,0.03,-0.03,0.05
2.4326491355895996,0.0,0.11,0.04,0.11
2.4340951442718506,-0.08,0.14,0.04,0.16
2.4351329803466797,-0.06,0.12,0.07,0.15
2.45516300201416,-0.02,0.11,0.04,0.11
2.4566659927368164,-0.02,0.11,0.05,0.12
2.469057083129883,0.01,0.11,0.11,0.15
2.4707093238830566,-0.01,0.1,0.09,0.13
2.485349178314209,0.02,0.04,-0.01,0.04
2.4891653060913086,0.1,0.05,-0.06,0.12
2.5023159980773926,-0.01,0.14,0.0,0.14
2.5350003242492676,-0.03,0.08,0.09,0.12
2.536518096923828,0.0,0.07,0.07,0.09
2.5376052856445312,-0.1,0.09,0.16,0.2
2.5540590286254883,-0.08,0.09,0.13,0.17
2.5551722049713135,-0.03,0.07,0.09,0.11
2.5692551136016846,-0.01,0.1,0.13,0.16
2.571047306060791,0.0,0.09,0.17,0.19
2.58518123626709,0.05,0.07,0.16,0.18
2.5893430709838867,0.13,0.03,0.28,0.31
2.602354049682617,-0.11,-0.04,0.82,0.82
2.6338181495666504,0.07,0.03,0.32,0.32
2.635193109512329,0.51,0.22,0.12,0.56
2.6363131999969482,0.28,0.02,0.17,0.32
2.655576229095459,0.19,-0.1,0.42,0.47
2.65730619430542,0.26,-0.12,0.73,0.78
2.668814182281494,0.33,-0.22,0.77,0.86
2.6705870628356934,0.44,-0.2,0.59,0.76
2.6851561069488525,0.31,-0.1,0.39,0.5
2.690467119216919,0.15,-0.15,0.49,0.53
2.7025561332702637,0.01,-0.07,0.55,0.55
2.7329320907592773,-0.1,0.09,0.15,0.2
2.734464168548584,-0.09,0.3,-0.16,0.35
2.735563278198242,-0.15,0.57,-0.12,0.6
2.7555103302001953,-0.16,0.67,-0.14,0.7
2.757233142852783,0.31,0.59,-0.68,0.95
2.7700753211975098,1.04,0.4,-1.58,1.93
2.7719831466674805,1.35,0.61,-2.37,2.79
2.7862792015075684,2.26,1.01,-2.72,3.67
2.790591239929199,1.46,1.19,-2.25,2.93
2.8024802207946777,1.06,0.76,-2.25,2.6
2.834618091583252,0.88,0.19,-1.61,1.84
2.836188316345215,-0.19,-0.2,-0.23,0.35
2.8372771739959717,-0.93,0.2,3.35,3.48
2.85585618019104,-3.11,-0.15,5.73,6.52
2.85762619972229,-3.17,-1.03,4.73,5.78
2.870603084564209,-1.55,-1.67,3.55,4.21
2.873058319091797,-0.09,-1.96,3.11,3.67
2.885991096496582,0.31,-2.23,2.67,3.49
2.891282081604004,0.02,-2.67,2.17,3.44
2.902407169342041,-0.46,-2.82,1.26,3.12
2.9326982498168945,-0.3,-2.56,0.62,2.65
2.9347662925720215,0.29,-1.51,0.06,1.53
2.9359130859375,0.34,-0.12,0.12,0.38
2.9409990310668945,-0.45,1.57,0.43,1.68
2.951155185699463,-1.25,3.14,-0.61,3.43
2.9616522789001465,-0.79,3.49,-2.89,4.59
2.971680164337158,0.2,1.99,-2.96,3.57
2.982573986053467,0.56,-0.1,-2.13,2.2
2.9922542572021484,0.33,-1.13,-1.81,2.15
3.00213623046875,-0.31,-1.01,-1.41,1.76
3.0345711708068848,-0.38,-0.51,-0.7,0.94
3.0365099906921387,0.11,-0.54,0.11,0.56
3.0375990867614746,-0.16,-0.39,-0.24,0.48
3.0560011863708496,-1.51,2.38,-3.14,4.21
3.057720184326172,-2.12,2.84,-3.27,4.82
3.070247173309326,-0.61,0.71,-1.18,1.5
3.07277512550354,1.34,-0.35,-1.05,1.73
3.085726261138916,0.61,-0.46,-1.08,1.32
3.092494010925293,-1.35,-0.11,-0.15,1.36
3.1031291484832764,-1.65,-0.2,0.5,1.73
3.1324572563171387,-0.12,-0.57,0.0,0.58
3.1339502334594727,1.11,0.56,-0.11,1.24
3.135094165802002,0.5,-0.54,1.4,1.58
3.14219331741333,0.72,-0.26,2.0,2.14
3.1528120040893555,1.06,0.78,1.56,2.04
3.1631503105163574,0.28,0.84,1.46,1.7
3.1731410026550293,-0.29,0.01,1.3,1.33
3.1835761070251465,0.1,-0.64,1.5,1.63
3.1933131217956543,1.55,-0.72,0.41,1.75
3.2035350799560547,1.76,-0.23,-1.24,2.16
3.242215156555176,0.83,0.32,-1.72,1.93
3.2435450553894043,0.64,0.4,-1.39,1.58
3.2446401119232178,0.62,0.39,-1.06,1.28
3.254329204559326,0.27,0.16,-0.86,0.91
3.255512237548828,0.07,0.2,-1.02,1.04
3.272815227508545,0.25,0.32,-0.73,0.83
3.2747011184692383,0.45,0.14,-0.32,0.56
3.2869672775268555,0.52,0.03,-0.12,0.53
3.293720245361328,0.6,-0.25,0.0,0.65
3.3038902282714844,0.87,-0.22,0.06,0.89
3.3358402252197266,1.11,0.07,0.05,1.11
3.3373801708221436,1.12,0.18,0.16,1.14
3.338501214981079,0.84,0.1,0.18,0.86
3.355323314666748,0.81,0.08,0.24,0.84
3.3564720153808594,0.72,0.06,0.01,0.72
3.369915008544922,0.5,-0.04,-0.49,0.7
3.3736400604248047,0.5,-0.1,-0.52,0.72
3.385622024536133,0.88,0.0,-0.26,0.91
3.394296169281006,0.98,-0.04,-0.14,0.99
3.404816150665283,0.98,-0.15,-0.22,1.01
3.4343552589416504,0.85,-0.15,-0.06,0.86
3.4363369941711426,0.75,-0.3,0.15,0.82
3.4374711513519287,0.84,-0.44,0.18,0.96
3.4561100006103516,0.77,-0.35,-0.04,0.84
3.457235097885132,0.48,-0.12,-0.02,0.49
3.4703612327575684,0.13,-0.03,-0.07,0.15
3.474945068359375,0.01,-0.05,-0.24,0.24
3.486131191253662,0.15,-0.03,-0.37,0.4
3.4950952529907227,0.2,0.05,-0.09,0.22
3.505303144454956,0.38,-0.09,0.21,0.44
3.5404632091522217,0.78,-0.29,0.56,1.0
3.5427842140197754,0.87,-0.48,0.93,1.36
3.543863296508789,0.83,-0.67,0.85,1.36
3.5544543266296387,0.76,-0.69,0.91,1.37
3.5557260513305664,0.42,-0.53,1.04,1.24
3.569549083709717,0.18,-0.34,1.02,1.09
3.5751953125,0.04,-0.16,0.93,0.94
3.586726188659668,0.01,-0.09,1.0,1.0
3.5957822799682617,0.18,-0.11,0.85,0.87
3.605830192565918,0.27,-0.26,0.64,0.74
3.638078212738037,0.27,-0.35,0.6,0.74
3.6394362449645996,0.36,-0.39,0.65,0.83
3.6405022144317627,0.46,-0.39,0.49,0.77
3.6558051109313965,0.24,-0.33,0.12,0.42
3.657466173171997,-0.33,-0.27,-0.05,0.42
3.669516086578369,-0.87,-0.25,-0.02,0.9
3.6758522987365723,-0.96,-0.12,0.06,0.96
3.6861181259155273,-0.84,-0.14,-0.23,0.88
3.696721076965332,-0.68,-0.02,-0.62,0.92
3.706470012664795,-0.72,-0.06,-0.79,1.07
3.739809989929199,-0.62,0.2,-0.63,0.9
3.7413229942321777,-0.67,0.27,-0.51,0.88
3.742432117462158,-0.85,0.21,-0.33,0.93
3.755244255065918,-0.33,0.35,-0.17,0.51
3.757012128829956,0.25,0.16,-0.38,0.48
3.76981520652771,0.24,0.13,-0.48,0.55
3.7764081954956055,-0.46,0.23,-0.52,0.73
3.786640167236328,-1.1,0.56,-0.45,1.31
3.7970361709594727,-0.72,0.8,-0.41,1.15
3.807063102722168,-0.06,0.83,-0.52,0.98
3.8459882736206055,-0.04,0.76,-1.07,1.31
3.8477861881256104,-0.64,0.79,-1.33,1.67
3.8488991260528564,-0.98,0.52,-0.39,1.17
3.854473114013672,-0.71,0.37,0.05,0.8
3.8565073013305664,-0.71,0.31,0.36,0.85
3.870631217956543,-1.28,-0.13,0.31,1.32
3.877166271209717,-1.63,-0.17,0.2,1.65
3.8873231410980225,-1.36,0.09,0.29,1.39
3.8975062370300293,-1.05,0.25,0.89,1.39
3.9076132774353027,-1.09,0.25,1.08,1.55
3.945451259613037,-1.16,0.56,0.69,1.46
3.9472312927246094,-0.86,0.76,0.35,1.19
3.948324203491211,-0.58,0.56,0.45,0.92
3.954446315765381,-0.58,-0.01,0.53,0.78
3.9573631286621094,-1.08,-0.36,0.66,1.31
3.970767021179199,-1.92,-0.46,1.03,2.22
3.977931022644043,-2.53,-0.5,1.23,2.85
3.988224983215332,-2.87,-0.69,1.28,3.21
3.9983673095703125,-2.83,-0.95,1.26,3.24
4.008281230926514,-2.47,-1.16,1.11,2.94
4.0452423095703125,-1.94,-1.19,0.87,2.43
4.047476291656494,-1.47,-1.11,0.51,1.91
4.049098014831543,-1.1,-1.06,0.11,1.53
4.053986072540283,-0.58,-1.14,-0.2,1.29
4.0576043128967285,-0.01,-1.24,-0.36,1.29
4.070187091827393,0.43,-1.22,-0.45,1.36
4.0779571533203125,0.59,-0.85,-0.96,1.41
4.088428020477295,0.92,-0.57,-1.98,2.25
4.09885311126709,1.82,-0.54,-2.01,2.76
4.109357118606567,2.43,0.04,-0.99,2.62
4.143359184265137,4.74,2.18,1.82,5.52
4.144926071166992,10.66,1.15,-5.12,11.88
4.146061182022095,12.43,2.74,-13.96,18.89
4.154081106185913,-0.36,3.82,3.06,4.9
4.158265113830566,-7.02,2.31,2.63,7.84
4.169442176818848,-2.57,2.26,-5.19,6.21
4.178711175918579,0.81,-0.91,1.46,1.9
4.18911600112915,-0.9,-1.5,3.09,3.55
4.199337005615234,-2.2,-0.28,2.59,3.4
4.20943021774292,-2.06,-0.14,2.43,3.18
4.247298240661621,-0.96,0.3,0.36,1.06
4.249070167541504,0.29,0.45,-0.31,0.61
4.250205993652344,0.68,0.19,-0.94,1.17
4.254166126251221,0.45,0.1,-1.1,1.19
4.270698070526123,0.18,0.04,-0.39,0.43
4.272343158721924,0.32,0.04,0.15,0.35
4.288403034210205,0.44,-0.08,0.6,0.74
4.29105019569397,0.36,-0.09,0.79,0.87
4.303429126739502,0.23,0.01,0.65,0.68
4.310100078582764,0.07,0.04,0.21,0.22
4.342677116394043,0.05,0.13,-0.28,0.31
4.344058036804199,0.31,0.22,-0.42,0.56
4.345166206359863,0.51,0.17,-0.32,0.62
4.3565661907196045,0.49,0.05,-0.16,0.51
4.359421253204346,0.14,-0.08,0.16,0.22
4.369721174240112,-0.48,-0.02,0.37,0.6
4.379974126815796,-1.04,0.16,0.44,1.14
4.389883995056152,-1.27,0.29,0.54,1.41
4.400491237640381,-1.09,0.33,0.55,1.26
4.410794258117676,-0.37,0.24,0.16,0.46
4.443570137023926,0.37,0.09,-0.16,0.41
4.4453582763671875,0.4,0.0,0.15,0.42
4.446455001831055,0.27,0.04,0.26,0.37
4.454367160797119,0.27,0.03,0.15,0.31
4.460087299346924,0.27,-0.02,0.07,0.27
4.470811128616333,0.26,0.02,-0.03,0.26
4.4809112548828125,0.28,0.01,-0.32,0.42
4.4910571575164795,0.36,0.04,-0.5,0.61
4.501376152038574,0.35,0.07,-0.39,0.52
4.511151313781738,0.15,0.1,-0.29,0.34
4.546036243438721,0.06,0.05,0.09,0.11
4.547527313232422,0.06,0.02,0.18,0.19
4.548530101776123,0.18,0.0,0.07,0.19
4.554500102996826,0.46,-0.06,-0.18,0.49
4.560588121414185,0.52,-0.1,-0.63,0.82
4.5711541175842285,0.41,-0.19,-0.73,0.85
4.5815110206604,0.38,-0.16,-0.38,0.56
4.591436147689819,0.46,0.08,-0.1,0.47
4.602107048034668,0.25,0.39,0.15,0.48
4.611993312835693,-0.31,0.48,0.78,0.96
4.64640998840332,-0.84,0.35,1.16,1.47
4.648007154464722,-0.79,0.07,1.44,1.64
4.649188995361328,-0.55,-0.01,1.18,1.3
4.654595136642456,-0.66,0.08,0.87,1.09
4.661525249481201,-0.72,0.19,0.68,1.0
4.671712160110474,-0.67,0.27,0.39,0.82
4.681783199310303,-0.65,0.2,0.34,0.76
4.692314147949219,-0.46,0.16,0.29,0.56
4.702766180038452,-0.04,0.13,0.05,0.14
4.712465286254883,0.31,0.07,-0.13,0.34
4.748395204544067,0.37,0.03,0.01,0.37
4.749881267547607,0.23,-0.02,0.1,0.25
4.750993251800537,0.13,-0.05,0.0,0.13
4.752212047576904,0.08,-0.01,0.0,0.08
4.772296190261841,0.12,-0.03,-0.07,0.14
4.774211168289185,0.31,0.02,-0.22,0.38
4.78563928604126,0.51,0.02,-0.19,0.54
4.792387008666992,0.45,0.04,-0.24,0.51
4.803211212158203,0.26,0.01,-0.07,0.26
4.813013076782227,0.08,0.0,0.06,0.1
4.845484256744385,-0.07,0.07,0.13,0.16
4.846774101257324,-0.18,0.07,0.41,0.45
4.847803115844727,-0.33,0.14,0.58,0.68
4.854802131652832,-0.46,0.24,0.48,0.7
4.862410068511963,-0.53,0.15,0.31,0.63
4.872911214828491,-0.48,0.06,0.26,0.54
4.883893013000488,-0.53,0.11,0.22,0.58
4.893412113189697,-0.68,0.14,0.2,0.72
4.903639316558838,-0.85,0.21,0.37,0.95
4.913793087005615,-1.17,0.32,0.74,1.42
4.948200225830078,-1.38,0.43,0.79,1.64
4.94974422454834,-1.19,0.5,0.91,1.57
4.950868129730225,-1.06,0.41,1.08,1.56
4.954695224761963,-1.27,0.79,0.97,1.78
4.970470190048218,-1.35,1.2,0.58,1.89
4.973464012145996,-1.07,1.18,0.28,1.61
4.986196994781494,-0.79,1.23,0.69,1.61
4.994154214859009,-1.14,1.56,1.01,2.18
5.00412917137146,-1.61,2.17,1.06,2.9
5.014397144317627,-1.97,2.65,0.49,3.33
5.049183130264282,-2.1,3.76,-0.54,4.34
5.050589084625244,-2.6,3.75,-0.16,4.56
5.051727294921875,-3.45,3.11,-0.77,4.7
5.0552451610565186,-2.97,3.37,-1.59,4.76
5.06395411491394,-2.25,3.48,-1.26,4.33
5.07433819770813,-2.79,4.28,-0.93,5.19
5.084010124206543,-3.39,5.16,0.08,6.17
5.094746112823486,-4.66,5.22,0.86,7.05
5.104552268981934,-6.12,4.66,1.05,7.76
5.11542820930481,-6.76,4.04,0.87,7.92
5.147952079772949,-6.93,3.55,0.27,7.79
5.149491310119629,-6.8,3.22,-0.29,7.52
5.150606155395508,-6.54,2.83,-0.43,7.13
5.155016183853149,-6.16,2.56,-0.5,6.68
5.170464992523193,-5.76,2.49,0.19,6.27
5.174645185470581,-4.8,3.15,0.58,5.77
5.186042308807373,-3.12,4.06,1.72,5.4
5.195068120956421,-1.49,4.68,2.0,5.3
5.20539116859436,-1.21,4.83,1.23,5.12
5.215465068817139,-2.35,4.5,1.06,5.18
5.247498989105225,-4.09,3.16,2.21,5.62
5.248885154724121,-4.99,1.74,2.74,5.95
5.250013113021851,-4.37,0.78,1.97,4.85
5.2551093101501465,-2.84,-0.39,1.3,3.14
5.2651331424713135,-1.38,-2.03,1.03,2.66
5.275294303894043,-0.67,-2.39,1.51,2.9
5.286153316497803,-0.17,-3.27,1.38,3.55
5.295660018920898,-2.82,-3.62,1.64,4.87
5.3069751262664795,-5.93,-3.81,1.3,7.16
5.316609144210815,-7.32,-4.42,0.86,8.59
5.350135326385498,-7.37,-4.94,0.46,8.88
5.351733207702637,-6.65,-4.83,-0.01,8.21
5.352952003479004,-5.85,-4.49,-0.48,7.39
5.355542182922363,-5.31,-4.12,-0.75,6.76
5.365682125091553,-4.8,-3.54,-0.72,6.0
5.375867128372192,-4.27,-2.99,-0.63,5.25
5.385902166366577,-4.14,-2.5,-0.77,4.89
5.396450996398926,-4.37,-1.97,-1.1,4.91
5.406783103942871,-4.51,-1.52,-1.32,4.93
5.4170732498168945,-4.54,-1.1,-1.08,4.79
5.448731184005737,-4.52,-0.68,-0.41,4.58
5.450428009033203,-4.44,-0.33,0.2,4.45
5.451527118682861,-4.04,0.03,0.39,4.05
5.456063270568848,-3.23,0.41,0.17,3.26
5.466554164886475,-2.27,0.83,-0.33,2.43
5.47685432434082,-1.31,1.24,-0.91,2.02
5.487393140792847,-0.46,1.67,-1.42,2.23
5.497486114501953,0.18,2.07,-1.58,2.61
5.50753927230835,0.5,2.58,-1.34,2.94
5.517897129058838,0.53,3.31,-0.95,3.48
5.553695201873779,0.53,4.08,-0.69,4.17
5.555230140686035,0.56,4.64,-0.52,4.7
5.556375980377197,0.55,5.08,-0.54,5.13
5.57433819770813,0.54,5.43,-0.15,5.45
5.5767903327941895,0.53,5.48,1.01,5.59
5.588207244873047,0.94,5.81,2.51,6.39
5.5907042026519775,1.32,5.76,3.74,6.99
5.603893280029297,1.94,5.79,4.21,7.41
5.60782527923584,2.44,5.4,3.64,6.95
5.620979309082031,2.89,4.63,2.5,6.0
5.650854110717773,3.59,3.65,1.56,5.35
5.652676105499268,4.59,2.79,1.38,5.54
5.6538310050964355,6.2,2.26,1.23,6.71
5.673627138137817,8.34,1.93,0.23,8.56
5.675422191619873,9.92,1.41,-1.16,10.08
5.688158988952637,9.97,0.76,-2.15,10.22
5.69067907333374,8.82,0.54,-2.75,9.25
5.704061985015869,7.99,0.72,-2.72,8.47
5.708364009857178,8.08,0.99,-2.18,8.42
5.720571041107178,9.02,0.99,-2.08,9.3
5.75360631942749,9.66,0.64,-2.12,9.91
5.755153179168701,8.79,0.94,-2.77,9.26
5.756275177001953,9.18,1.09,-4.79,10.41
5.758267164230347,8.54,3.33,-9.32,13.07
5.768030166625977,3.8,3.93,-15.39,16.33
5.778335094451904,-8.82,8.7,-3.79,12.95
5.788578033447266,-12.18,11.53,5.41,17.62
5.798874139785767,-3.13,5.11,2.07,6.33
5.808963298797607,3.0,9.48,3.5,10.54
5.819602012634277,5.76,16.22,10.63,20.23
5.852601051330566,11.05,10.05,-5.03,15.76
5.854143142700195,10.42,-3.96,-0.87,11.18
5.855306148529053,-2.44,-10.21,9.84,14.38
5.874112129211426,-5.78,-4.82,-10.16,12.64
5.87599515914917,3.55,0.23,-8.94,9.62
5.8882811069488525,10.89,0.93,0.11,10.93
5.890896320343018,10.95,1.85,-0.5,11.11
5.903989315032959,5.65,0.4,1.46,5.84
5.909548282623291,-0.88,-1.07,1.77,2.24
5.920574188232422,-3.78,-0.8,2.27,4.48
5.953796148300171,-2.46,0.31,2.11,3.25
5.955327033996582,0.12,0.7,1.34,1.51
5.956448078155518,0.81,-0.01,0.01,0.81
5.973935127258301,0.22,-0.29,-0.79,0.86
5.975679159164429,-0.16,-0.12,-0.34,0.39
5.9871461391448975,-0.27,-0.04,0.03,0.27
5.989453315734863,-0.36,-0.07,0.33,0.49
6.003544330596924,-0.48,-0.29,0.55,0.78
6.010087013244629,-0.07,-0.66,1.03,1.22
6.0208892822265625,0.77,-0.9,0.98,1.53
6.051189184188843,1.06,-0.65,0.67,1.41
6.05277419090271,0.33,-0.08,-0.04,0.34
6.0539491176605225,-0.69,0.47,-0.62,1.03
6.075509071350098,-0.98,0.66,-0.91,1.49
6.077249050140381,-0.38,0.51,-0.54,0.83
6.086757183074951,-0.02,0.36,-0.37,0.51
6.090241193771362,-0.19,0.23,0.03,0.29
6.10356330871582,-0.37,0.05,0.56,0.67
6.110677242279053,-0.56,-0.07,0.78,0.96
6.12119722366333,-0.53,-0.01,0.66,0.84
6.153656005859375,-0.19,0.1,0.61,0.64
6.155195236206055,0.28,0.16,0.2,0.37
6.156328201293945,0.47,0.19,0.03,0.5
6.175530195236206,0.49,0.26,0.09,0.56
6.177286148071289,0.16,0.35,-0.04,0.38
6.186758041381836,-0.17,0.28,0.02,0.32
6.190917015075684,-0.24,0.15,-0.06,0.28
6.2037482261657715,-0.26,0.23,0.02,0.34
6.211588144302368,-0.33,0.13,0.12,0.37
6.221548080444336,-0.42,0.03,0.07,0.42
6.2541680335998535,-0.48,0.14,0.27,0.56
6.255714178085327,-0.52,0.21,0.44,0.71
6.2568511962890625,-0.48,0.2,0.45,0.68
6.26087212562561,-0.27,0.25,0.44,0.57
6.271181106567383,-0.1,0.32,0.31,0.45
6.281407117843628,0.1,0.35,-0.19,0.41
6.291528224945068,0.32,0.53,-0.53,0.81
6.30191707611084,0.23,0.71,-0.3,0.8
6.311911106109619,-0.26,0.64,-0.13,0.7
6.32291316986084,-0.63,0.5,-0.25,0.84
6.35761833190918,-0.66,0.51,-0.09,0.83
6.359037160873413,-0.63,0.67,0.23,0.94
6.360191106796265,-0.66,0.62,0.39,0.98
6.375072002410889,-0.68,0.58,0.49,1.01
6.376185178756714,-0.77,0.68,0.71,1.24
6.387684106826782,-0.89,0.76,0.94,1.5
6.391855239868164,-0.94,0.7,1.13,1.62
6.404064178466797,-1.08,0.43,0.79,1.4
6.412142276763916,-1.08,0.29,0.45,1.2
6.422708034515381,-0.93,0.35,0.32,1.04
6.4565110206604,-0.98,0.44,0.23,1.09
6.457927227020264,-1.04,0.58,0.15,1.2
6.459094047546387,-1.01,0.82,0.25,1.32
6.474765300750732,-1.09,0.92,0.4,1.48
6.4759461879730225,-1.33,1.0,0.5,1.73
6.487582206726074,-1.64,1.07,0.56,2.03
6.492521286010742,-1.79,1.05,0.42,2.11
6.503658294677734,-1.84,0.91,0.19,2.06
6.513042211532593,-2.0,0.83,-0.15,2.17
6.523367166519165,-2.19,0.95,-0.4,2.42
6.558260202407837,-2.39,1.22,-0.53,2.73
6.559887170791626,-2.63,1.67,-0.46,3.14
6.561013221740723,-3.12,2.45,-0.08,3.96
6.573362112045288,-4.0,3.56,0.58,5.38
6.574490070343018,-5.5,4.83,1.12,7.4
6.587737083435059,-7.19,5.93,1.07,9.38
6.593420028686523,-8.46,6.94,0.71,10.96
6.604389190673828,-9.15,8.14,0.42,12.25
6.614012241363525,-9.63,8.9,0.45,13.12
6.623908996582031,-9.4,7.99,0.69,12.35
6.65641713142395,-8.52,6.19,1.91,10.7
6.6579790115356445,-6.78,7.5,1.88,10.28
6.659113168716431,-3.53,9.5,0.43,10.14
6.674972057342529,0.39,7.37,0.29,7.38
6.676094055175781,0.77,3.9,2.09,4.49
6.687742233276367,-2.16,2.32,1.9,3.69
6.69396710395813,-5.37,1.99,1.56,5.93
6.705195188522339,-5.85,-0.37,1.73,6.11
6.715153217315674,-4.45,-2.92,1.83,5.62
6.724690198898315,-2.71,-3.38,1.59,4.61
6.756700038909912,-1.7,-4.07,1.12,4.55
6.7583112716674805,-4.72,-4.01,1.48,6.36
6.759444236755371,-7.49,-3.87,0.94,8.48
6.775926113128662,-8.6,-3.97,0.52,9.48
6.7771430015563965,-8.11,-3.98,0.35,9.04
6.7889533042907715,-7.12,-3.84,-0.11,8.09
6.794402122497559,-6.52,-3.43,-0.64,7.39
6.804817199707031,-6.07,-3.04,-0.79,6.83
6.814759254455566,-5.32,-2.8,-0.49,6.03
6.825232028961182,-4.42,-2.71,-0.17,5.18
6.858997106552124,-3.9,-2.68,-0.29,4.74
6.860570192337036,-3.77,-2.46,-0.66,4.54
6.8616862297058105,-3.62,-2.14,-0.78,4.27
6.873293161392212,-3.41,-1.7,-0.56,3.85
6.874748229980469,-3.18,-1.17,-0.28,3.39
6.888898134231567,-2.98,-0.64,-0.12,3.05
6.8949971199035645,-2.75,-0.17,-0.12,2.75
6.905654191970825,-2.47,0.39,-0.27,2.51
6.9156880378723145,-1.91,1.03,-0.59,2.24
6.925863265991211,-1.08,1.56,-0.98,2.13
6.962355136871338,-0.3,2.0,-1.12,2.31
6.964022159576416,0.22,2.48,-1.0,2.68
6.965148210525513,0.56,2.98,-0.78,3.13
6.972593307495117,0.85,3.49,-0.54,3.63
6.975373268127441,1.17,4.04,-0.4,4.22
6.988479137420654,1.55,4.68,-0.29,4.93
6.995755195617676,1.87,5.23,-0.02,5.55
7.006353139877319,2.04,5.53,0.66,5.93
7.016360282897949,2.43,5.81,1.62,6.5
7.026318073272705,2.83,6.12,2.35,7.14
7.0602240562438965,3.16,6.19,2.51,7.38
7.061813116073608,3.3,5.92,2.09,7.09
7.0629191398620605,3.48,5.26,1.23,6.42
7.072870254516602,4.32,4.26,0.16,6.06
7.075664043426514,6.13,3.25,-0.83,6.98
7.088362216949463,8.51,2.61,-1.33,9.0
7.096529006958008,10.55,2.09,-1.2,10.82
7.106657028198242,11.08,1.5,-0.99,11.22
7.11679220199585,10.0,1.29,-1.31,10.16
7.1270911693573,8.62,1.15,-1.76,8.87
7.161949157714844,8.28,1.23,-1.87,8.57
7.163430213928223,8.93,1.6,-1.33,9.16
7.164570331573486,8.74,1.64,-0.42,8.9
7.172428131103516,9.17,0.87,-1.57,9.34
7.17664098739624,8.39,2.06,-3.65,9.37
7.187852144241333,7.95,4.57,-8.63,12.59
7.196916103363037,2.98,6.17,-13.76,15.37
7.207182168960571,-8.59,11.96,0.81,14.74
7.217803001403809,-6.41,13.22,5.55,15.7
7.2284979820251465,3.89,14.4,3.66,15.35
7.260013103485107,9.04,11.48,3.72,15.07
7.26161527633667,12.58,5.76,-15.15,20.51
7.262775182723999,3.58,-4.31,-3.72,6.72
7.273462295532227,-2.19,-9.17,12.22,15.43
7.277216196060181,2.36,-8.5,2.62,9.2
7.2890520095825195,7.24,-2.96,-0.22,7.82
7.297996997833252,8.33,1.68,-2.98,9.0
7.3078532218933105,6.9,3.24,-3.07,8.21
7.318542003631592,3.27,2.56,-1.86,4.55
7.328291177749634,-0.25,1.04,-1.12,1.54
7.364029169082642,-0.89,-0.33,-0.41,1.03
7.365638256072998,0.1,-0.52,1.56,1.64
7.3668131828308105,-0.28,0.21,1.72,1.75
7.372573137283325,-0.58,0.04,1.34,1.46
7.377521991729736,-0.15,-0.51,0.94,1.07
7.388243198394775,0.21,-0.38,0.5,0.66
7.398402214050293,0.19,0.01,0.17,0.25
7.407947063446045,-0.23,0.15,-0.07,0.28
7.4188392162323,-0.43,0.14,0.0,0.45
7.428849220275879,-0.52,0.07,0.27,0.59
7.460424184799194,-0.66,-0.03,0.33,0.73
7.462042331695557,-0.61,0.11,0.43,0.75
7.463166236877441,-0.57,0.28,0.23,0.67
7.4725213050842285,-0.43,0.21,-0.08,0.48
7.4781341552734375,-0.13,0.26,-0.16,0.33
7.488589286804199,-0.22,0.44,-0.04,0.49
7.498772144317627,-0.79,0.47,0.17,0.93
7.509026050567627,-1.06,0.38,0.43,1.2
7.519272327423096,-0.74,0.27,0.32,0.85
7.529294013977051,-0.12,0.3,0.21,0.38
7.5645201206207275,0.3,0.34,0.08,0.46
7.566126108169556,0.14,0.27,0.02,0.3
7.567294120788574,-0.27,0.36,0.18,0.48
7.572690010070801,-0.49,0.48,0.34,0.76
7.578843116760254,-0.39,0.32,0.37,0.62
7.58946418762207,-0.24,0.26,0.33,0.48
7.599796295166016,-0.2,0.3,0.42,0.55
7.609851121902466,-0.19,0.25,0.53,0.61
7.620094299316406,-0.1,0.12,0.62,0.63
7.630640983581543,0.13,-0.21,0.82,0.85
7.6635823249816895,0.35,-0.63,0.77,1.05
7.665096282958984,0.25,-0.64,0.8,1.05
7.666065216064453,-0.18,-0.4,0.8,0.91
7.672442197799683,-0.44,-0.23,0.58,0.76
7.679654121398926,-0.31,-0.16,0.31,0.46
7.690085172653198,-0.08,-0.18,0.04,0.2
7.699867248535156,0.12,-0.16,-0.27,0.33
7.7104761600494385,0.23,-0.03,-0.49,0.54
7.720685005187988,0.11,0.05,-0.52,0.53
7.73059606552124,-0.03,0.14,-0.42,0.44
7.7660441398620605,-0.08,0.24,-0.09,0.26
7.767635107040405,-0.1,0.29,0.11,0.32
7.7687342166900635,-0.21,0.52,0.11,0.57
7.7725841999053955,-0.38,0.7,0.11,0.8
7.788730144500732,-0.65,0.64,-0.05,0.91
7.7905731201171875,-0.8,0.56,-0.23,1.0
7.804356098175049,-0.86,0.49,-0.26,1.02
7.81118631362915,-0.97,0.47,-0.17,1.09
7.821371078491211,-0.95,0.44,-0.08,1.04
7.83085823059082,-0.94,0.59,0.18,1.12
7.861565113067627,-1.08,0.86,0.54,1.48
7.862919330596924,-1.34,0.95,0.82,1.83
7.864044189453125,-1.61,0.91,0.9,2.05
7.873667240142822,-1.74,0.92,0.82,2.13
7.880495071411133,-1.58,1.09,0.61,2.01
7.890988111495972,-1.47,1.35,0.44,2.04
7.901900291442871,-1.72,1.57,0.34,2.35
7.911368131637573,-2.08,1.56,0.13,2.6
7.921950101852417,-2.28,1.5,0.0,2.72
7.931709289550781,-2.53,1.63,0.0,3.0
7.966320991516113,-2.91,1.93,0.09,3.49
7.967818260192871,-3.39,2.2,0.38,4.05
7.968955039978027,-4.18,2.67,0.46,4.98
7.973057270050049,-5.38,3.61,0.38,6.49
7.989045143127441,-6.56,4.72,0.59,8.1
7.9915900230407715,-7.19,5.77,0.8,9.25
8.004724979400635,-8.59,6.37,0.69,10.71
8.012468099594116,-11.57,7.49,0.6,13.79
8.022438049316406,-11.77,8.71,1.01,14.67
8.032480239868164,-11.62,8.89,1.06,14.66
8.069730281829834,-10.22,8.07,0.94,13.05
8.071086168289185,-7.27,7.81,1.16,10.73
8.072154998779297,-3.41,8.18,3.21,9.42
8.091860294342041,-0.8,8.0,3.0,8.58
8.092720985412598,-1.21,6.51,2.0,6.91
8.106260299682617,-3.71,3.78,2.62,5.9
8.108599185943604,-6.01,1.42,3.04,6.88
8.12202501296997,-7.01,-0.12,3.25,7.72
8.124946117401123,-5.94,-1.75,2.2,6.57
8.137765169143677,-3.86,-2.98,2.05,5.28
8.16236400604248,-0.12,-2.05,1.15,2.35
8.163940191268921,4.09,-3.58,-0.16,5.43
8.1650972366333,1.06,-4.09,0.61,4.26
8.172965049743652,-4.58,-3.87,0.74,6.04
8.182497024536133,-8.1,-4.89,0.4,9.47
8.192850112915039,-10.13,-5.66,-0.39,11.61
8.203412055969238,-10.29,-5.21,-0.86,11.56
8.2137451171875,-7.61,-4.1,-1.13,8.71
8.223453044891357,-5.26,-3.36,-1.6,6.44
8.233675003051758,-4.23,-3.0,-1.75,5.47
8.267112255096436,-4.16,-3.07,-1.27,5.32
8.268715143203735,-4.38,-3.24,-0.87,5.51
8.269880294799805,-4.26,-3.17,-0.92,5.38
8.273717164993286,-3.86,-2.91,-1.7,5.12
8.283507108688354,-3.27,-2.36,-2.21,4.59
8.29384708404541,-2.67,-1.75,-1.85,3.68
8.303772211074829,-2.21,-1.27,-0.76,2.65
8.313939094543457,-2.07,-0.74,0.12,2.2
8.324318170547485,-1.97,0.14,0.33,2.0
8.334777116775513,-1.28,1.14,0.09,1.71
8.36555814743042,0.08,2.09,-0.32,2.11
8.36715316772461,1.64,3.03,-0.6,3.49
8.36831521987915,2.97,3.87,-0.71,4.92
8.373733043670654,3.74,4.55,-0.64,5.92
8.384093284606934,3.71,5.5,-0.55,6.65
8.394031047821045,3.19,6.71,-0.47,7.44
8.404176235198975,2.72,7.6,0.13,8.07
8.414964199066162,2.8,7.75,1.22,8.33
8.424658298492432,3.29,7.16,2.1,8.15
8.435363292694092,3.49,6.42,2.27,7.65
8.470243215560913,3.23,5.69,1.89,6.81
8.471808195114136,3.26,4.74,1.23,5.88
8.472935199737549,4.77,3.24,0.26,5.77
8.49305510520935,8.16,2.33,-1.06,8.55
8.494831085205078,12.12,1.97,-2.36,12.5
8.504971027374268,14.69,1.02,-2.91,15.01
8.506770133972168,14.91,0.13,-2.9,15.18
8.52207326889038,14.02,0.17,-3.12,14.36
8.524991989135742,12.77,1.54,-2.68,13.13
8.53850507736206,10.26,2.54,-0.36,10.57
8.566431045532227,9.0,3.89,0.04,9.8
8.56806230545044,5.83,4.2,-6.65,9.79
8.569225311279297,-7.07,6.03,0.54,9.3
8.574756145477295,-16.94,14.77,9.04,24.22
8.588839054107666,-11.13,16.06,1.66,19.61
8.595092296600342,1.66,7.46,1.44,7.77
8.605076313018799,6.37,8.84,11.41,15.77
8.61583423614502,11.03,6.7,0.31,12.9
8.625802993774414,19.76,-1.95,-18.97,27.46
8.636336326599121,12.25,-9.02,5.1,16.04
8.667739152908325,2.79,-6.17,0.7,6.8
8.669191122055054,2.31,-2.14,-1.67,3.56
8.670315265655518,3.53,1.31,-2.39,4.45
8.675658226013184,3.97,2.76,-1.86,5.18
8.68569016456604,3.48,2.47,0.44,4.29
8.696049213409424,2.11,0.72,1.2,2.53
8.706117153167725,1.07,-0.82,1.08,1.72
8.716633319854736,1.16,-0.61,1.31,1.85
8.726469039916992,1.38,0.18,1.15,1.8
8.736746311187744,1.6,0.04,0.88,1.82
8.770644187927246,1.51,-0.24,0.05,1.52
8.77267599105835,1.31,-0.26,-0.44,1.4
8.774420261383057,1.01,-0.1,-0.79,1.28
8.79233717918396,0.58,0.01,-0.98,1.13
8.794801235198975,0.17,-0.09,-0.81,0.83
8.80688214302063,-0.23,-0.21,-0.32,0.44
8.809858322143555,-0.71,-0.22,0.15,0.75
8.821850299835205,-1.1,-0.26,0.49,1.23
8.827077150344849,-1.11,-0.15,0.62,1.28
8.83868408203125,-0.9,-0.17,1.04,1.38
8.870035171508789,-0.89,-0.22,1.27,1.56
8.872111320495605,-0.69,-0.17,1.08,1.29
8.873228073120117,-0.37,-0.16,0.65,0.76
8.892110109329224,0.02,-0.2,0.27,0.33
8.893856048583984,0.33,-0.03,0.19,0.38
8.906880140304565,0.24,0.18,0.29,0.41
8.909334182739258,0.05,0.28,0.17,0.33
8.921571254730225,0.17,0.18,0.04,0.25
8.927489280700684,0.38,0.06,0.13,0.4
8.93873405456543,0.34,0.03,0.21,0.4
8.969733238220215,0.27,0.01,0.1,0.28
8.971322059631348,0.17,0.16,0.27,0.35
8.972443103790283,0.0,0.29,0.41,0.5
8.993497133255005,0.0,0.21,0.53,0.57
8.995342254638672,0.1,-0.08,0.7,0.71
9.006251335144043,0.01,0.01,0.75,0.75
9.008829116821289,-0.31,0.24,0.72,0.81
9.02214002609253,-0.59,0.36,0.71,0.99
9.028266191482544,-0.57,0.21,0.62,0.86
9.039030075073242,-0.46,-0.14,0.43,0.64
9.071774005889893,-0.48,0.24,0.12,0.54
9.074056148529053,-0.81,0.53,-0.01,0.96
9.075808048248291,-0.95,0.72,-0.45,1.27
9.092833995819092,-0.7,0.88,-0.52,1.23
9.093689203262329,-0.56,0.68,-0.52,1.02
9.106853008270264,-0.42,0.55,-0.35,0.77
9.109453201293945,-0.57,0.5,0.04,0.75
9.121999263763428,-0.84,0.45,0.36,1.01
9.128987312316895,-0.82,0.31,0.42,0.97
9.138916015625,-0.62,0.25,0.62,0.91
9.172322273254395,-0.33,0.06,1.0,1.05
9.174482107162476,-0.17,-0.16,1.03,1.05
9.176048278808594,-0.28,-0.01,0.96,1.0
9.192958116531372,-0.7,0.09,0.89,1.13
9.193716049194336,-1.13,0.06,0.86,1.42
9.206813335418701,-1.2,0.13,0.63,1.36
9.209428310394287,-1.06,0.36,0.2,1.13
9.221784114837646,-0.95,0.6,-0.1,1.12
9.22946310043335,-0.98,0.82,-0.25,1.3
9.239691257476807,-1.11,0.87,-0.39,1.46
9.271424293518066,-1.09,0.89,-0.5,1.49
9.27372407913208,-1.02,1.13,-0.44,1.58
9.274968147277832,-1.12,1.25,-0.61,1.78
9.29276418685913,-1.4,1.09,-0.6,1.87
9.293632984161377,-1.63,1.07,-0.51,2.01
9.307579040527344,-1.71,1.21,-0.14,2.09
9.310180187225342,-2.11,1.45,0.19,2.56
9.32206416130066,-2.62,1.75,0.47,3.18
9.330101013183594,-3.05,2.06,0.66,3.73
9.341127157211304,-3.46,2.38,0.9,4.29
9.366347312927246,-3.86,2.85,1.0,4.9
9.36796522140503,-4.57,3.42,1.09,5.81
9.369940280914307,-5.57,4.06,1.19,6.99
9.380145072937012,-6.66,4.67,1.2,8.22
9.39021921157837,-7.57,5.29,1.0,9.28
9.399923324584961,-8.01,5.86,0.63,9.94
9.410690307617188,-8.27,6.31,0.29,10.4
9.420650005340576,-10.1,6.37,-0.32,11.94
9.430811166763306,-9.45,5.99,-0.35,11.19
9.440977096557617,-7.79,5.85,-0.21,9.74
9.475244045257568,-5.32,6.39,1.09,8.38
9.47672414779663,-1.4,7.18,2.54,7.74
9.477902173995972,0.58,7.29,3.73,8.2
9.493316173553467,-1.21,6.44,3.64,7.49
9.495221138000488,-3.74,4.44,2.92,6.49
9.50605320930481,-5.36,2.03,2.61,6.29
9.510910034179688,-6.39,0.56,2.66,6.94
9.522049188613892,-6.26,-0.59,2.7,6.84
9.531230211257935,-4.91,-1.5,2.07,5.53
9.541486263275146,-2.39,-1.69,2.87,4.09
9.574652194976807,2.08,-2.14,0.78,3.08
9.576264142990112,4.27,-3.57,0.36,5.57
9.577421188354492,-0.88,-3.29,1.64,3.77
9.592531204223633,-5.7,-3.75,2.07,7.13
9.59432315826416,-8.42,-5.0,1.68,9.93
9.606564998626709,-10.21,-5.42,0.43,11.56
9.611560106277466,-10.9,-4.36,-0.73,11.76
9.623070240020752,-8.41,-3.11,-1.15,9.04
9.632518291473389,-5.3,-2.56,-1.27,6.02
9.642261028289795,-3.91,-2.34,-1.27,4.73
9.6739821434021,-3.53,-2.52,-0.99,4.44
9.676202297210693,-3.68,-2.96,-0.62,4.76
9.6773362159729,-3.74,-3.37,-0.33,5.04
9.69191312789917,-3.74,-3.46,-0.29,5.1
9.693518161773682,-3.8,-3.06,-0.62,4.91
9.706808090209961,-3.55,-2.37,-0.84,4.35
9.712167263031006,-3.11,-1.73,-0.58,3.6
9.722793102264404,-2.75,-1.08,-0.05,2.95
9.732475280761719,-2.64,-0.28,0.4,2.68
9.742711067199707,-2.54,0.8,0.57,2.72
9.77823519706726,-1.95,1.98,0.35,2.8
9.780117988586426,-0.79,3.13,0.01,3.22
9.781332015991211,0.4,4.63,-0.19,4.65
9.791261196136475,1.45,5.86,-0.21,6.04
9.792754173278809,2.33,7.08,0.19,7.45
9.806060314178467,3.31,8.06,0.79,8.74
9.8130202293396,4.49,8.56,1.39,9.76
9.822899103164673,5.41,8.62,2.1,10.39
9.833306312561035,5.95,8.45,2.66,10.67
9.843225002288818,5.91,7.92,2.87,10.29
9.87968111038208,5.23,6.92,2.46,9.01
9.881821155548096,4.72,5.36,1.0,7.21
9.883219242095947,6.03,3.43,-1.79,7.16
9.890795230865479,10.3,2.4,-3.09,11.01
9.892899990081787,14.99,1.37,-2.28,15.22
9.906689167022705,16.65,0.61,-2.45,16.84
9.913374185562134,13.84,1.86,-3.67,14.43
9.923694133758545,11.42,1.99,-3.67,12.15
9.933890104293823,10.88,3.08,-1.77,11.44
9.94381332397461,9.79,5.4,-1.26,11.25
9.979584217071533,5.21,5.21,-5.12,8.97
9.981671333312988,-7.03,6.67,4.09,10.51
9.983386039733887,-13.1,12.87,9.3,20.58
9.9913330078125,-7.68,15.15,4.16,17.48
9.994294166564941,3.21,12.52,14.53,19.44
10.006399154663086,9.73,8.83,2.9,13.45
10.01371431350708,16.79,-1.8,-22.15,27.85
10.024064064025879,6.52,-8.12,0.59,10.43
10.034358024597168,0.44,-8.11,1.12,8.19
10.044431209564209,4.7,-4.32,-0.99,6.46
10.074668169021606,8.94,-0.17,-1.09,9.0
10.07653522491455,9.46,1.21,-2.83,9.94
10.07773733139038,5.69,1.47,-0.88,5.94
10.093936204910278,0.0,1.33,0.43,1.39
10.095799207687378,-3.47,1.32,-0.58,3.75
10.106475114822388,-1.62,0.61,0.0,1.73
10.114480018615723,1.71,0.05,0.72,1.85
10.124715328216553,2.13,-0.03,0.5,2.18
10.135097980499268,1.85,-0.73,1.24,2.34
10.145506143569946,1.31,-0.91,1.42,2.13
10.17786717414856,0.72,-0.39,1.19,1.44
10.179454326629639,0.17,-0.01,1.0,1.01
10.180574178695679,-0.12,0.16,0.62,0.65
10.190546035766602,0.08,0.05,0.59,0.59
10.194793224334717,0.02,-0.09,0.28,0.29
10.206735134124756,-0.35,0.02,0.13,0.37
10.215031147003174,-0.81,0.23,-0.08,0.84
10.225280284881592,-0.99,0.57,-0.5,1.24
10.235774993896484,-0.75,0.5,-0.55,1.05
10.245634078979492,-0.17,0.25,-0.55,0.62
10.279662132263184,0.27,0.16,-0.3,0.43
10.281219005584717,0.12,0.07,0.0,0.13
10.282380104064941,-0.06,0.04,0.03,0.07
10.291733264923096,-0.01,0.12,0.17,0.2
10.295201301574707,-0.05,0.06,0.2,0.21
10.30917501449585,-0.03,-0.02,0.19,0.19
10.316172122955322,0.14,-0.01,0.32,0.34
10.326403141021729,0.34,0.05,0.62,0.7
10.336849212646484,0.39,0.18,0.71,0.82
10.347015142440796,0.26,0.27,0.72,0.81
10.374547004699707,0.3,0.3,0.52,0.67
10.376113176345825,0.35,0.28,0.34,0.56
10.37725019454956,0.29,0.21,0.13,0.38
10.3961341381073,0.28,0.16,0.02,0.32
10.397897243499756,0.22,0.21,0.11,0.32
10.406288146972656,-0.12,0.22,0.24,0.34
10.416410207748413,-0.47,0.08,0.27,0.54
10.42650032043457,-0.65,-0.08,0.33,0.73
10.437195301055908,-0.79,-0.31,0.52,0.99
10.447015285491943,-0.83,-0.51,0.73,1.21
10.478800296783447,-0.85,-0.46,0.81,1.26
10.481118202209473,-0.8,-0.23,0.85,1.18
10.482253074645996,-0.55,-0.08,0.64,0.84
10.490697145462036,-0.33,0.01,0.35,0.48
10.496814250946045,-0.26,0.15,0.0,0.3
10.507037162780762,-0.23,0.2,-0.25,0.39
10.517136096954346,-0.18,0.3,-0.31,0.46
10.527064323425293,-0.35,0.45,-0.19,0.6
10.537351131439209,-0.74,0.68,-0.12,1.01
10.547532081604004,-1.04,0.73,-0.12,1.27
10.580470085144043,-1.08,0.66,-0.1,1.26
10.58276915550232,-1.06,0.74,0.05,1.29
10.583986282348633,-1.15,0.81,0.23,1.42
10.590647220611572,-1.25,0.77,0.32,1.5
10.597233295440674,-1.23,0.71,0.27,1.44
10.607367992401123,-1.02,0.7,0.29,1.27
10.61783504486084,-1.0,0.92,0.4,1.41
10.62774109840393,-1.33,1.26,0.63,1.93
10.638229131698608,-1.82,1.51,0.71,2.46
10.648108005523682,-2.14,1.7,0.78,2.84
10.68067216873169,-2.36,1.84,0.59,3.05
10.683057308197021,-2.52,1.92,0.36,3.18
10.684789180755615,-2.81,1.97,0.19,3.43
10.69093132019043,-3.2,2.02,0.08,3.78
10.697421073913574,-3.65,2.1,-0.09,4.21
10.707868099212646,-4.24,2.25,-0.34,4.81
10.718290328979492,-4.97,2.4,-0.72,5.56
10.728515148162842,-5.59,2.67,-1.19,6.3
10.738831043243408,-6.22,3.23,-1.57,7.18
10.74887228012085,-6.96,4.19,-1.51,8.26
10.781325101852417,-7.74,4.87,-0.89,9.18
10.782902240753174,-8.88,5.69,-0.44,10.55
10.784035205841064,-9.95,7.23,0.39,12.3
10.79091501235962,-10.73,8.5,1.15,13.73
10.798566102981567,-9.57,8.13,1.6,12.65
10.808492183685303,-4.4,6.95,2.52,8.6
10.818917274475098,-0.33,7.31,2.43,7.71
10.829009056091309,1.78,9.63,2.98,10.23
10.839352130889893,-0.88,9.27,5.57,10.85
10.84949016571045,-4.67,6.12,5.37,9.38
10.883028984069824,-6.43,2.93,4.2,8.22
10.885411262512207,-6.64,0.64,3.13,7.36
10.887201309204102,-6.63,-0.97,2.71,7.22
10.891064167022705,-6.38,-2.31,2.77,7.32
10.907050132751465,-4.99,-2.3,3.66,6.6
10.909248113632202,-0.78,-1.5,2.18,2.75
10.922519207000732,4.13,-2.72,-0.79,5.0
10.929529190063477,2.89,-3.19,0.05,4.3
10.93981122970581,-2.37,-2.84,1.48,3.98
10.949973106384277,-5.98,-4.08,2.25,7.58
10.982189178466797,-8.12,-5.68,2.1,10.12
10.983541011810303,-9.08,-5.9,0.96,10.87
10.984669208526611,-8.15,-4.6,-0.44,9.36
10.9911470413208,-5.99,-3.4,-1.33,7.01
10.999775171279907,-4.55,-2.71,-1.56,5.52
11.009961128234863,-4.03,-2.35,-1.46,4.88
11.020546197891235,-3.8,-2.47,-1.19,4.68
11.030842304229736,-3.69,-2.82,-0.77,4.7
11.0403733253479,-3.57,-3.1,-0.51,4.75
11.050704002380371,-3.64,-3.09,-0.66,4.82
11.082701206207275,-3.77,-2.68,-0.88,4.7
11.08428430557251,-3.59,-2.09,-0.87,4.24
11.085439205169678,-3.21,-1.57,-0.39,3.59
11.091304302215576,-2.91,-1.02,0.14,3.08
11.100313186645508,-2.55,-0.41,0.38,2.61
11.110599040985107,-2.15,0.22,0.32,2.18
11.120765209197998,-1.69,1.13,0.02,2.03
11.130967140197754,-1.02,2.19,-0.46,2.45
11.141367197036743,-0.15,3.21,-0.87,3.32
11.15145206451416,0.62,4.15,-0.81,4.27
11.185506105422974,1.18,5.04,-0.49,5.19
11.187024116516113,1.52,5.95,-0.13,6.14
11.188149213790894,1.89,7.14,0.01,7.38
11.191769123077393,2.73,8.23,0.05,8.67
11.201311111450195,3.97,8.86,0.51,9.72
11.210945129394531,5.26,9.09,1.3,10.58
11.221456050872803,6.18,8.41,2.25,10.67
11.231244087219238,6.72,6.93,2.12,9.88
11.241631984710693,6.59,5.02,0.46,8.29
11.251849174499512,7.33,2.78,-2.02,8.09
11.286035060882568,9.95,2.0,-3.38,10.69
11.287989139556885,13.55,1.87,-1.98,13.82
11.289149284362793,14.53,2.28,-0.56,14.71
11.2917799949646,13.39,2.1,-1.95,13.69
11.301315307617188,12.95,1.82,-1.37,13.14
11.311670303344727,13.52,2.61,-0.65,13.78
11.321803092956543,12.76,4.36,-1.47,13.56
11.332233190536499,6.97,3.02,-8.32,11.26
11.342480182647705,-7.07,7.96,-3.13,11.09
11.352946281433105,-13.51,14.4,3.95,20.13
11.382940292358398,-6.18,12.37,1.09,13.87
11.384512186050415,4.68,10.59,9.88,15.22
11.385653018951416,10.77,7.48,6.53,14.64
11.39180612564087,18.57,5.8,-15.55,24.9
11.40193223953247,13.12,-5.18,-5.6,15.17
11.412399291992188,0.23,-6.44,8.68,10.81
11.422554016113281,-1.69,-6.97,7.28,10.21
11.432538032531738,0.26,-2.97,-3.62,4.68
11.442866325378418,3.66,1.18,-3.49,5.19
11.453137159347534,5.85,2.54,-1.02,6.45
11.486642122268677,5.38,2.46,-2.61,6.46
11.488525152206421,3.07,0.63,-2.25,3.85
11.48967719078064,0.98,-0.58,-0.4,1.2
11.492273330688477,-0.4,-0.63,0.28,0.79
11.502770185470581,-0.9,-0.02,0.69,1.13
11.51291799545288,-0.61,0.18,1.57,1.69
11.52295732498169,-0.37,-0.16,1.57,1.62
11.533554077148438,-0.39,-0.36,0.69,0.87
11.543801307678223,-0.15,-0.22,-0.01,0.26
11.553779125213623,0.06,0.04,-0.33,0.33
11.587531089782715,-0.08,0.24,-0.37,0.44
11.589832305908203,-0.46,0.22,0.04,0.51
11.59117317199707,-0.96,0.16,0.66,1.17
11.611241102218628,-1.32,0.26,0.61,1.47
11.612995147705078,-1.35,0.47,0.3,1.46
11.624914169311523,-0.92,0.45,0.14,1.03
11.627330303192139,-0.09,0.22,-0.1,0.25
11.63960599899292,0.49,0.07,-0.06,0.49
11.643686294555664,0.54,0.22,0.06,0.58
11.656819105148315,0.25,0.25,0.1,0.36
11.680251121520996,0.17,0.23,-0.06,0.29
11.68184232711792,0.51,0.28,-0.09,0.58
11.683577060699463,0.84,0.3,0.05,0.89
11.69386911392212,0.98,0.35,0.29,1.08
11.70404314994812,0.8,0.48,0.22,0.95
11.714434146881104,0.55,0.46,0.05,0.71
11.72437310218811,0.46,0.44,-0.11,0.64
11.734570980072021,0.4,0.44,-0.15,0.61
11.744662284851074,0.33,0.39,0.05,0.51
11.755078315734863,0.04,0.35,0.48,0.59
11.789006233215332,-0.54,0.29,0.85,1.04
11.790992259979248,-0.97,0.17,0.72,1.21
11.792064189910889,-1.06,-0.02,0.53,1.18
11.811552047729492,-1.06,-0.12,0.62,1.23
11.813403129577637,-1.19,-0.08,0.81,1.44
11.82454514503479,-1.12,0.01,0.83,1.39
11.826985120773315,-1.04,0.02,0.67,1.23
11.840082168579102,-1.04,0.01,0.3,1.08
11.845270156860352,-0.86,0.14,-0.13,0.88
11.857489109039307,-0.6,0.24,-0.38,0.74
11.887531280517578,-0.43,0.33,-0.4,0.67
11.889878273010254,-0.53,0.44,-0.28,0.74
11.891033172607422,-0.7,0.51,-0.12,0.87
11.910799980163574,-0.61,0.37,-0.01,0.71
11.911635160446167,-0.45,0.42,0.01,0.61
11.924594163894653,-0.45,0.6,-0.04,0.75
11.926948070526123,-0.56,0.47,0.12,0.74
11.940361022949219,-0.79,0.43,0.42,0.99
11.945815086364746,-1.01,0.58,0.67,1.34
11.957718133926392,-1.15,0.71,0.78,1.56
11.987271308898926,-1.36,0.94,0.83,1.84
11.989562034606934,-1.58,1.17,0.77,2.11
11.99085807800293,-1.69,1.36,0.53,2.23
11.995220184326172,-1.77,1.57,0.43,2.4
12.005447149276733,-2.06,1.73,0.34,2.71
12.016126155853271,-2.45,1.84,0.24,3.07
12.026613235473633,-2.79,1.95,0.16,3.4
12.036267280578613,-3.2,2.05,0.15,3.8
12.046585083007812,-3.69,2.23,0.3,4.32
12.056538105010986,-4.36,2.55,0.56,5.08
12.088078022003174,-5.28,3.07,0.75,6.15
12.089425086975098,-6.23,3.89,0.95,7.4
12.090564250946045,-5.52,5.1,1.42,7.64
12.111638069152832,-8.4,5.98,1.16,10.37
12.113445281982422,-11.28,6.73,0.78,13.15
12.1249361038208,-11.81,6.79,0.31,13.62
12.12743330001831,-9.76,7.64,0.78,12.41
12.140334129333496,-8.42,8.26,1.42,11.88
12.146727085113525,-6.28,8.22,2.01,10.53
12.156990051269531,-2.48,7.99,3.34,9.0
12.186511993408203,0.58,7.51,3.98,8.51
12.188060283660889,0.75,6.86,4.53,8.25
12.189192295074463,-0.97,4.29,4.4,6.22
12.196471214294434,-3.4,1.83,3.4,5.14
12.207183122634888,-6.11,-0.3,3.36,6.97
12.217080116271973,-7.55,-1.8,2.68,8.21
12.227317333221436,-7.09,-2.85,2.36,7.99
12.237900257110596,-4.74,-3.55,3.39,6.82
12.24757719039917,0.06,-2.66,2.38,3.56
12.257867097854614,6.11,-3.86,-1.11,7.31
12.291935205459595,7.36,-5.72,-1.1,9.38
12.2938871383667,0.61,-4.73,-0.14,4.77
12.295491218566895,-4.25,-4.71,-0.67,6.37
12.311634063720703,-6.62,-5.83,-1.65,8.97
12.313376188278198,-8.24,-5.81,-2.07,10.29
12.324709177017212,-8.69,-4.9,-1.82,10.14
12.32783317565918,-6.64,-4.26,-1.11,7.96
12.34053921699524,-4.94,-3.76,-0.87,6.26
12.348634243011475,-4.01,-3.58,-0.81,5.43
12.358655214309692,-3.45,-3.73,-0.63,5.11
12.386337280273438,-3.48,-3.77,-0.45,5.15
12.387714147567749,-3.76,-3.64,-0.41,5.24
12.388936042785645,-4.28,-3.33,-0.64,5.46
12.398323059082031,-4.84,-2.66,-0.89,5.59
12.40821123123169,-4.76,-2.03,-0.63,5.21
12.418320178985596,-4.15,-1.5,0.13,4.41
12.429787158966064,-3.31,-0.93,0.59,3.48
12.438883304595947,-2.49,-0.23,0.37,2.52
12.448938131332397,-1.82,0.72,-0.19,1.96
12.45903205871582,-1.07,1.84,-0.89,2.3
12.492444038391113,-0.06,2.85,-1.42,3.18
12.494560241699219,0.7,4.16,-1.39,4.44
12.495980262756348,1.34,4.97,-1.3,5.3
12.511638164520264,1.63,5.92,-1.21,6.25
12.513427257537842,1.62,7.58,-0.85,7.79
12.524530172348022,1.85,8.6,-0.27,8.8
12.529082298278809,2.9,9.1,0.93,9.59
12.540096282958984,4.37,9.56,2.35,10.77
12.549789190292358,5.61,9.42,3.89,11.63
12.559575080871582,6.95,7.89,4.36,11.38
12.593379020690918,7.72,5.37,2.48,9.72
12.595019102096558,7.96,3.46,-1.12,8.75
12.596150159835815,9.99,2.34,-3.11,10.72
12.61224913597107,13.28,1.55,-0.6,13.38
12.614166259765625,14.47,1.12,-0.31,14.51
12.624377250671387,13.85,1.5,-3.2,14.29
12.629608154296875,13.78,2.25,-3.91,14.49
12.641066074371338,14.08,3.73,-4.32,15.19
12.650066137313843,10.06,2.17,-9.81,14.21
12.660536289215088,-5.04,4.71,-1.23,7.0
12.693296194076538,-14.57,11.43,8.49,20.37
12.695410251617432,-9.48,12.45,4.23,16.21
12.696506023406982,2.86,5.82,2.32,6.88
12.712300300598145,7.11,5.37,3.96,9.75
12.714068174362183,10.22,4.85,-1.11,11.36
12.72488021850586,13.34,-0.49,-3.73,13.86
12.73028016090393,5.41,-4.01,3.69,7.67
12.740415096282959,-0.89,-3.74,5.64,6.82
12.750722169876099,-1.72,-2.32,1.35,3.18
12.760709285736084,0.81,0.07,-4.99,5.05
12.794645309448242,4.75,1.55,-5.53,7.45
12.79698133468628,6.82,1.51,-2.59,7.44
12.798401117324829,5.3,0.69,-2.27,5.8
12.809251308441162,2.21,-0.38,-1.46,2.67
12.810501098632812,-0.35,-0.58,0.22,0.71
12.824124336242676,-1.68,0.12,1.01,1.96
12.83076524734497,-1.61,0.31,1.71,2.36
12.84117603302002,-0.93,-0.01,1.57,1.82
12.851258277893066,-0.03,-0.2,0.71,0.73
12.861287117004395,0.88,-0.2,0.01,0.9
12.89812421798706,1.48,-0.07,-0.6,1.59
12.900278091430664,1.69,0.18,-0.75,1.85
12.901697158813477,1.22,0.21,-0.46,1.32
12.908963203430176,0.15,0.08,0.06,0.18
12.911054134368896,-0.87,0.11,0.5,1.0
12.925486087799072,-1.04,0.22,0.51,1.17
12.931504249572754,-0.53,0.25,0.36,0.68
12.94156813621521,0.04,0.09,0.32,0.33
12.951951026916504,0.43,-0.16,0.28,0.53
12.96227502822876,0.65,-0.17,0.32,0.74
12.998746156692505,0.51,-0.05,0.45,0.68
13.000892162322998,0.11,0.06,0.53,0.54
13.002528190612793,-0.28,0.13,0.61,0.68
13.00912618637085,-0.48,0.21,0.65,0.83
13.011521100997925,-0.39,0.16,0.65,0.77
13.025139331817627,-0.26,0.25,0.34,0.49
13.032258987426758,-0.32,0.34,0.26,0.53
13.04265308380127,-0.55,0.21,0.24,0.63
13.052795171737671,-0.64,0.24,0.35,0.76
13.06298828125,-0.89,0.32,0.56,1.09
13.095372200012207,-1.26,0.37,0.71,1.49
13.097576141357422,-1.4,0.28,0.77,1.62
13.098868131637573,-1.14,0.23,0.67,1.34
13.109261989593506,-0.83,0.23,0.51,1.0
13.112194061279297,-0.64,0.19,0.43,0.79
13.124778270721436,-0.45,0.42,0.4,0.73
13.132591247558594,-0.11,0.41,0.07,0.43
13.143146991729736,0.04,0.38,-0.33,0.5
13.153067111968994,-0.14,0.03,-0.19,0.23
13.162988185882568,-0.14,-0.22,-0.4,0.47
13.196924209594727,-0.11,-0.1,-0.19,0.24
13.199202060699463,-0.22,0.2,0.0,0.29
13.20087218284607,-0.24,0.48,0.28,0.6
13.208699226379395,-0.19,0.59,0.41,0.74
13.212513208389282,-0.06,0.54,0.49,0.73
13.224874019622803,-0.07,0.44,0.45,0.63
13.233208179473877,-0.2,0.35,0.24,0.46
13.243324279785156,-0.3,0.36,0.02,0.46
13.254019260406494,-0.42,0.55,-0.12,0.7
13.263763189315796,-0.67,0.64,-0.2,0.94
13.295684099197388,-0.81,0.54,-0.09,0.97
13.2972571849823,-0.87,0.59,-0.01,1.05
13.298387050628662,-0.99,0.79,0.11,1.27
13.308767318725586,-1.22,0.88,0.22,1.52
13.313420295715332,-1.37,0.83,0.27,1.62
13.325154304504395,-1.45,0.78,0.33,1.67
13.333944320678711,-1.51,0.92,0.44,1.82
13.34431505203247,-1.62,1.2,0.55,2.08
13.356179237365723,-1.91,1.44,0.55,2.45
13.36417007446289,-2.32,1.66,0.6,2.91
13.397077083587646,-2.76,1.85,0.69,3.39
13.399153232574463,-3.21,2.06,0.56,3.85
13.40052604675293,-3.67,2.24,0.37,4.31
13.408851146697998,-4.22,2.67,0.12,4.99
13.414023160934448,-4.92,3.53,0.08,6.05
13.424687147140503,-5.9,4.6,-0.01,7.48
13.434725284576416,-7.09,5.4,-0.29,8.91
13.445432186126709,-8.03,6.1,-0.7,10.1
13.45517110824585,-8.06,7.11,-0.51,10.75
13.465120315551758,-9.14,7.86,-0.07,12.05
13.498233318328857,-9.01,7.06,0.66,11.46
13.500537157058716,-7.74,4.81,2.67,9.49
13.502155303955078,-6.69,5.64,3.03,9.25
13.508965015411377,-3.28,9.24,1.08,9.86
13.51430606842041,2.99,9.1,-0.22,9.58
13.524834156036377,4.99,5.42,3.03,7.96
13.535253047943115,0.61,3.12,4.62,5.6
13.54528522491455,-4.74,2.2,4.04,6.6
13.555795192718506,-7.86,0.68,3.21,8.51
13.565468311309814,-7.7,-1.08,2.55,8.18
13.597185134887695,-6.24,-2.56,3.18,7.45
13.59877610206604,-3.67,-2.48,3.72,5.78
13.599906206130981,0.8,-2.64,0.79,2.86
13.60908031463623,1.65,-2.71,0.51,3.21
13.61482310295105,-2.31,-2.8,1.75,4.02
13.625466108322144,-5.61,-3.62,2.25,7.04
13.635740280151367,-7.4,-4.54,2.21,8.95
13.6458740234375,-7.59,-5.03,1.45,9.22
13.656270027160645,-6.37,-4.79,0.34,7.97
13.66640019416809,-5.19,-4.18,-0.4,6.67
13.698572158813477,-4.62,-3.64,-0.51,5.9
13.700155258178711,-4.27,-3.35,-0.19,5.43
13.701303005218506,-3.72,-3.34,0.09,5.0
13.708887100219727,-3.12,-3.45,0.09,4.65
13.716267108917236,-2.83,-3.53,-0.1,4.52
13.726518154144287,-2.97,-3.39,-0.28,4.51
13.736700057983398,-3.33,-3.04,-0.48,4.53
13.746912002563477,-3.71,-2.48,-0.69,4.51
13.75683307647705,-3.84,-1.85,-0.66,4.31
13.76672911643982,-3.64,-1.32,-0.31,3.88
13.800133228302002,-3.26,-0.69,-0.12,3.33
13.801757335662842,-2.85,-0.05,0.08,2.85
13.802854061126709,-2.68,0.57,0.91,2.88
13.809688091278076,-2.15,1.72,1.16,2.98
13.816396236419678,-0.19,4.02,0.48,4.05
13.827136993408203,3.94,6.28,-0.54,7.43
13.836885213851929,5.77,4.21,-0.8,7.18
13.847660064697266,2.15,4.97,-0.94,5.49
13.857367038726807,0.29,6.22,0.0,6.22
13.867791175842285,0.93,6.78,0.99,6.91
13.899882316589355,2.25,7.34,1.13,7.75
13.90186619758606,3.16,7.98,0.89,8.62
13.90297818183899,3.57,8.79,1.67,9.63
13.909258127212524,4.54,7.54,3.1,9.33
13.916990280151367,5.75,6.41,2.46,8.95
13.927192211151123,7.04,5.38,0.51,8.87
13.937835216522217,8.96,4.1,-1.56,9.97
13.947894096374512,10.99,2.42,-1.35,11.33
13.957956314086914,12.53,1.01,-0.27,12.57
13.968396186828613,12.85,0.75,-0.55,12.88
14.00160813331604,11.81,0.76,-1.53,11.93
14.003836154937744,11.48,1.1,-2.83,11.87
14.005027294158936,11.94,1.55,-2.86,12.37
14.009093284606934,11.24,2.99,-3.44,12.12
14.024901151657104,9.56,3.18,-7.53,12.57
14.027740001678467,1.39,3.53,-10.14,10.82
14.040855169296265,-10.88,8.17,4.03,14.19
14.048214197158813,-12.01,11.71,7.19,18.24
14.058426141738892,0.48,9.0,1.41,9.12
14.068562030792236,7.03,7.63,2.95,10.78
14.102452278137207,8.25,7.48,-1.96,11.3
14.10383129119873,7.56,0.93,-5.73,9.53
14.105002164840698,0.2,-4.05,2.45,4.73
14.109833240509033,-2.24,-5.58,8.36,10.29
14.125376224517822,-1.2,-5.12,7.35,9.03
14.128324031829834,1.56,-2.34,-0.43,2.84
14.141021251678467,4.82,0.36,-5.14,7.05
14.14886212348938,6.5,1.47,-4.24,7.89
14.159138202667236,5.76,1.58,-3.18,6.76
14.169100284576416,3.91,0.87,-2.63,4.79
14.200834274291992,2.04,0.04,-1.38,2.46
14.20219111442566,0.62,-0.28,-0.38,0.77
14.203341007232666,0.13,-0.15,0.45,0.49
14.209266185760498,0.25,-0.12,1.37,1.39
14.218788146972656,0.16,-0.2,1.93,1.94
14.229085206985474,0.18,-0.29,2.03,2.05
14.239506244659424,0.66,-0.3,1.39,1.56
14.249535083770752,1.2,-0.27,0.31,1.26
14.25999116897583,1.35,-0.07,-0.35,1.39
14.269878149032593,1.26,0.06,-0.33,1.3
14.302427291870117,0.7,0.17,-0.24,0.75
14.304047107696533,-0.12,0.22,0.13,0.28
14.305191040039062,-0.78,0.18,0.46,0.92
14.309621334075928,-0.93,0.11,0.35,0.99
14.325162172317505,-0.6,0.08,0.1,0.61
14.32946515083313,-0.16,0.1,-0.21,0.28
14.341753005981445,0.18,0.07,-0.33,0.38
14.350611209869385,0.35,-0.05,-0.12,0.37
14.36169719696045,0.25,-0.13,0.06,0.28
14.37011432647705,-0.2,0.01,0.07,0.21
14.402783155441284,-0.62,0.18,0.36,0.73
14.404404163360596,-0.61,0.21,0.5,0.81
14.405530214309692,-0.32,0.1,0.44,0.55
14.410073280334473,0.09,-0.03,0.39,0.4
14.425113201141357,0.2,-0.01,0.15,0.25
14.430126190185547,0.03,0.07,0.07,0.1
14.441747188568115,-0.18,0.05,0.37,0.41
14.450736999511719,-0.34,0.08,0.61,0.7
14.461634159088135,-0.47,0.16,0.69,0.85
14.47120714187622,-0.68,0.19,0.5,0.86
14.502822160720825,-0.46,0.22,0.63,0.81
14.504209041595459,-0.22,0.25,0.55,0.64
14.505360126495361,-0.41,0.28,0.46,0.67
14.510502099990845,-0.57,0.38,0.23,0.72
14.525172233581543,-0.61,0.26,0.1,0.67
14.530642986297607,-0.54,0.11,-0.07,0.55
14.541748046875,-0.46,0.24,-0.13,0.53
14.55141830444336,-0.56,0.27,0.2,0.65
14.561447143554688,-0.79,0.26,0.27,0.87
14.571768283843994,-0.87,0.18,0.18,0.9
14.605740070343018,-0.68,0.2,0.22,0.74
14.607807159423828,-0.43,0.33,0.61,0.81
14.609183311462402,-0.58,0.49,0.94,1.2
14.629603147506714,-0.71,0.72,1.17,1.54
14.631357192993164,-0.73,0.75,1.23,1.61
14.643409252166748,-0.77,0.72,0.73,1.28
14.645827293395996,-0.65,0.94,0.19,1.15
14.6579270362854,-0.57,1.12,-0.17,1.26
14.661846160888672,-0.6,1.2,-0.5,1.43
14.67500615119934,-0.73,1.25,-0.43,1.51
14.697837114334106,-1.0,1.4,-0.18,1.72
14.69939112663269,-1.32,1.45,0.12,1.96
14.70142412185669,-1.6,1.43,0.24,2.15
14.711634159088135,-1.7,1.46,0.35,2.26
14.722048282623291,-1.67,1.45,0.51,2.26
14.733654022216797,-1.82,1.48,0.62,2.42
14.742565155029297,-2.1,1.5,0.83,2.71
14.752626180648804,-2.4,1.67,0.89,3.05
14.763039112091064,-2.63,1.86,0.86,3.33
14.772898197174072,-2.92,2.11,0.76,3.68
14.804537296295166,-3.21,2.63,0.67,4.2
14.806093215942383,-3.57,3.27,0.6,4.87
14.807228088378906,-4.19,3.79,0.67,5.68
14.812166213989258,-4.98,4.34,0.65,6.63
14.822481155395508,-5.9,5.09,0.8,7.83
14.833079099655151,-6.93,6.32,1.06,9.43
14.843586206436157,-8.39,7.27,1.38,11.18
14.85302209854126,-9.69,7.22,1.35,12.15
14.863380193710327,-9.81,6.58,1.19,11.87
14.873687267303467,-9.19,6.1,1.26,11.1
14.90553331375122,-8.15,5.72,2.22,10.2
14.90690016746521,-6.54,6.05,3.44,9.55
14.908038139343262,-3.68,6.99,3.35,8.58
14.928356170654297,-0.35,5.65,2.59,6.22
14.93005919456482,-0.01,3.08,2.77,4.14
14.942660331726074,-2.06,1.24,1.57,2.87
14.945188045501709,-5.1,0.61,1.12,5.25
14.958300113677979,-6.91,-0.21,2.15,7.23
14.963998317718506,-5.52,-1.52,2.76,6.35
14.97486400604248,-2.5,-2.62,2.84,4.6
15.00505518913269,1.81,-2.41,0.61,3.07
15.006606101989746,5.1,-3.85,-1.87,6.65
15.007747173309326,0.67,-3.35,-1.84,3.88
15.013426303863525,-4.73,-2.61,-1.43,5.58
15.023861169815063,-8.04,-3.13,-0.93,8.67
15.033756256103516,-9.05,-3.77,-0.24,9.8
15.044218063354492,-7.73,-4.02,0.15,8.71
15.054728031158447,-6.07,-3.77,-0.22,7.14
15.064885139465332,-5.39,-3.54,-0.53,6.47
15.07494831085205,-5.41,-3.55,-0.41,6.48
15.108051300048828,-5.54,-3.57,-0.15,6.59
15.109598159790039,-5.42,-3.61,-0.23,6.51
15.110733032226562,-5.16,-3.45,-0.64,6.24
15.12898302078247,-5.03,-3.13,-0.98,6.0
15.131012201309204,-5.12,-2.63,-1.13,5.86
15.142657279968262,-4.95,-1.98,-0.92,5.41
15.145316123962402,-4.29,-1.39,-0.28,4.51
15.158400058746338,-3.33,-0.79,-0.02,3.42
15.165059089660645,-2.56,-0.14,-0.34,2.58
15.175636291503906,-2.23,0.79,-0.84,2.51
15.206919193267822,-1.73,1.77,-1.36,2.82
15.208605289459229,-0.73,2.58,-1.66,3.15
15.209806203842163,0.35,3.31,-1.57,3.68
15.228982210159302,1.01,3.99,-1.17,4.27
15.230777263641357,1.23,4.63,-0.74,4.84
15.242643117904663,1.26,5.41,-0.44,5.57
15.245460033416748,1.37,6.46,-0.14,6.6
15.258145332336426,1.8,7.3,0.44,7.53
15.26593017578125,2.85,7.97,1.39,8.57
15.275710105895996,4.65,8.34,2.37,9.83
15.306532144546509,6.35,8.25,3.03,10.84
15.308107137680054,7.16,7.07,2.64,10.4
15.309290170669556,7.25,5.24,0.88,8.98
15.330132007598877,7.7,3.24,-1.16,8.43
15.331963062286377,9.2,1.65,-1.54,9.47
15.344303131103516,11.47,1.55,-0.78,11.6
15.347795009613037,13.68,1.83,-1.79,13.91
15.361323118209839,14.95,1.34,-2.75,15.25
15.36608600616455,13.09,1.87,-1.6,13.31
15.376277208328247,12.45,1.76,-2.21,12.76
15.406841278076172,11.82,3.55,-1.13,12.39
15.408441066741943,8.04,3.98,-5.2,10.36
15.409540176391602,-3.32,4.55,-4.45,7.17
15.429190158843994,-13.58,11.87,2.58,18.22
15.430065155029297,-11.49,13.36,1.27,17.66
15.443449020385742,-0.81,5.03,1.24,5.24
15.446835994720459,4.87,6.2,3.83,8.76
15.458892107009888,7.65,9.57,4.91,13.19
15.466852188110352,13.54,8.4,-9.4,18.5
15.47808313369751,14.46,-1.95,-6.66,16.03
15.503973007202148,3.11,-7.09,7.07,10.48
15.505653142929077,-1.54,-6.98,4.67,8.53
15.506856203079224,0.77,-3.73,-4.51,5.9
15.516396045684814,4.79,0.1,-2.53,5.41
15.526686191558838,6.55,1.88,-0.6,6.84
15.53699517250061,5.37,2.29,-2.07,6.19
15.547324180603027,2.29,1.01,-1.56,2.94
15.557666301727295,0.13,-0.06,0.1,0.17
15.567945003509521,-0.6,-0.46,0.55,0.93
15.577604293823242,-0.5,-0.02,0.5,0.7
15.609599113464355,0.13,0.14,0.95,0.96
15.611669063568115,0.94,-0.24,1.16,1.51
15.61290717124939,1.33,-0.52,0.81,1.64
15.6299409866333,1.31,-0.29,0.21,1.35
15.63166618347168,1.1,0.05,0.13,1.1
15.643002986907959,0.78,0.13,0.24,0.82
15.647770166397095,0.32,0.02,0.23,0.39
15.658778190612793,-0.15,-0.05,0.23,0.27
15.668058156967163,-0.33,-0.02,0.33,0.46
15.678442001342773,-0.08,0.06,0.28,0.29
15.712119102478027,0.26,0.02,0.12,0.28
15.714395999908447,0.29,-0.03,0.1,0.3
15.715927124023438,0.23,-0.02,0.21,0.31
15.727941036224365,0.24,-0.08,0.36,0.44
15.72971510887146,0.23,-0.09,0.26,0.35
15.742326259613037,0.08,-0.01,0.16,0.17
15.748809099197388,0.04,0.13,0.04,0.14
15.758674144744873,0.09,0.16,0.06,0.19
15.769103050231934,0.05,0.09,0.22,0.24
15.778876304626465,-0.28,-0.04,0.58,0.64
15.810265064239502,-0.94,0.0,0.84,1.26
15.811828136444092,-1.57,0.58,0.93,1.91
15.812972068786621,-1.84,0.91,0.38,2.08
15.829990148544312,-1.61,0.43,0.21,1.67
15.831781148910522,-1.21,-0.16,0.25,1.24
15.843172073364258,-0.8,-0.16,0.2,0.84
15.848858118057251,-0.64,0.0,0.52,0.82
15.858992099761963,-0.8,0.07,0.78,1.11
15.86935019493103,-0.92,0.19,0.84,1.26
15.879409313201904,-0.75,0.28,0.82,1.14
15.91174030303955,-0.3,0.28,0.61,0.73
15.913227081298828,0.12,0.28,0.27,0.4
15.914236068725586,0.27,0.28,-0.03,0.39
15.928865194320679,0.18,0.27,-0.02,0.32
15.930545330047607,-0.03,0.32,0.01,0.32
15.94319200515747,-0.11,0.4,0.02,0.41
15.949425220489502,-0.12,0.38,0.11,0.41
15.959694147109985,0.03,0.39,0.03,0.39
15.970040321350098,0.07,0.32,-0.12,0.34
15.980268001556396,0.08,0.3,-0.33,0.45
16.01264214515686,0.1,0.49,-0.27,0.56
16.01500129699707,-0.17,0.56,-0.2,0.61
16.01675510406494,-0.44,0.61,-0.11,0.76
16.02709412574768,-0.49,0.66,-0.05,0.82
16.029234170913696,-0.6,0.66,0.07,0.89
16.042774200439453,-0.72,0.62,-0.03,0.95
16.049984216690063,-0.76,0.57,-0.07,0.95
16.060391187667847,-0.82,0.54,0.02,0.98
16.070669174194336,-0.96,0.69,0.25,1.2
16.080669164657593,-1.23,0.85,0.55,1.59
16.1129412651062,-1.59,0.89,0.77,1.97
16.11526918411255,-1.76,0.9,0.87,2.15
16.1164071559906,-1.73,0.87,0.84,2.11
16.128246307373047,-1.71,0.98,0.66,2.07
16.130227088928223,-1.82,1.13,0.42,2.18
16.144461154937744,-1.92,1.08,-0.13,2.2
16.150742053985596,-2.03,1.19,-0.86,2.5
16.16124415397644,-2.14,1.33,-1.41,2.88
16.171324253082275,-2.19,1.59,-1.55,3.11
16.18129301071167,-2.28,1.86,-1.24,3.19
16.21494722366333,-2.6,2.11,-0.88,3.46
16.21656608581543,-3.09,2.29,-0.36,3.86
16.217689037322998,-3.75,2.4,0.13,4.45
16.229650020599365,-4.72,2.67,0.31,5.43
16.231264114379883,-5.42,3.31,0.53,6.37
16.24349617958069,-5.03,4.66,0.9,6.91
16.25136709213257,-7.71,5.83,0.95,9.71
16.26172399520874,-10.2,6.69,0.89,12.23
16.272244215011597,-11.74,7.12,0.21,13.73
16.282254219055176,-10.84,7.7,0.43,13.3
16.313969135284424,-10.19,8.16,0.71,13.07
16.31630516052246,-9.36,8.07,1.26,12.42
16.3174409866333,-6.08,7.63,1.78,9.91
16.327839136123657,-0.8,8.86,0.46,8.9
16.33148431777954,3.66,9.05,0.17,9.76
16.344845294952393,3.2,5.55,3.06,7.09
16.352488040924072,-1.12,2.63,3.79,4.74
16.36218500137329,-5.69,0.89,3.68,6.83
16.37247323989868,-8.36,-1.0,3.04,8.95
16.382638216018677,-8.6,-2.5,1.92,9.15
16.413384199142456,-7.11,-3.59,2.27,8.28
16.415091037750244,-3.12,-3.11,2.86,5.25
16.416237115859985,3.65,-3.29,-0.43,4.93
16.43014121055603,6.42,-4.47,-1.35,7.93
16.43226432800293,0.79,-3.91,0.2,3.99
16.44438600540161,-4.8,-3.8,0.9,6.18
16.452593326568604,-8.25,-5.35,1.45,9.93
16.46308422088623,-10.23,-6.65,1.38,12.27
16.473270177841187,-10.88,-6.02,0.27,12.43
16.483574151992798,-8.46,-4.56,-0.56,9.62
16.516687154769897,-5.94,-3.63,-1.09,7.04
16.51900815963745,-4.98,-2.95,-1.38,5.95
16.52033019065857,-4.53,-2.64,-1.38,5.42
16.52693510055542,-4.08,-2.81,-1.21,5.09
16.53242826461792,-3.55,-3.08,-0.93,4.79
16.543017148971558,-3.08,-3.01,-0.8,4.38
16.55334210395813,-2.97,-2.32,-0.9,3.87
16.563393115997314,-2.79,-1.23,-0.9,3.17
16.573770999908447,-2.32,-0.21,-0.48,2.37
16.5835862159729,-1.76,0.56,0.05,1.84
16.616966247558594,-1.34,1.23,0.21,1.83
16.619311332702637,-0.82,1.97,-0.11,2.13
16.621102333068848,0.17,2.81,-0.68,2.89
16.627209186553955,1.41,3.72,-0.97,4.09
16.633318185806274,2.35,4.69,-0.76,5.3
16.643575191497803,2.84,5.35,-0.47,6.07
16.653895139694214,2.97,5.83,0.0,6.54
16.663954257965088,2.55,7.07,0.69,7.54
16.674418210983276,2.0,7.75,1.37,8.12
16.684274196624756,2.18,8.07,2.11,8.62
16.715679168701172,3.21,7.96,2.41,8.91
16.717223167419434,4.41,7.38,2.07,8.84
16.71834707260132,5.11,6.08,1.87,8.15
16.727083206176758,4.95,4.35,1.86,6.84
16.73360514640808,4.7,2.87,1.35,5.67
16.74411916732788,6.04,2.15,0.41,6.42
16.754805088043213,9.06,2.06,-0.73,9.31
16.764528274536133,11.47,1.98,-1.78,11.77
16.775028228759766,12.33,1.27,-2.79,12.7
16.785012245178223,12.36,0.45,-3.61,12.88
16.817174196243286,12.27,0.32,-3.95,12.89
16.81876802444458,11.57,1.3,-3.85,12.26
16.81987714767456,10.59,1.37,-3.16,11.13
16.827746152877808,8.92,2.48,-2.3,9.53
16.83479619026184,5.53,3.35,-5.16,8.27
16.844715118408203,-3.5,3.22,-6.3,7.89
16.85519313812256,-14.22,10.39,3.06,17.87
16.865347146987915,-11.71,13.21,3.26,17.95
16.87548303604126,1.99,6.13,0.9,6.5
16.885430335998535,6.64,9.39,7.77,13.87
16.917023181915283,9.38,8.48,5.25,13.69
16.918578147888184,16.05,5.28,-11.34,20.34
16.919795036315918,12.31,-3.86,-5.25,13.92
16.927204132080078,1.09,-5.73,4.21,7.19
16.935227155685425,-1.53,-5.18,8.27,9.87
16.945362091064453,-0.85,-2.39,0.78,2.65
16.95594024658203,1.82,1.56,-7.78,8.14
16.965740203857422,5.55,2.53,-4.38,7.5
16.97589612007141,6.83,1.92,-0.13,7.09
16.9865140914917,4.82,0.3,-0.03,4.82
17.018635272979736,1.99,-1.21,-0.18,2.33
17.020182132720947,-0.2,-1.18,0.89,1.49
17.021318197250366,-1.6,-0.16,1.15,1.97
17.027655124664307,-1.7,0.29,1.28,2.14
17.035686016082764,-0.69,0.09,1.11,1.31
17.04657506942749,0.46,-0.07,0.13,0.48
17.056342124938965,0.92,-0.04,-0.94,1.31
17.066689014434814,0.72,0.18,-1.02,1.26
17.07654619216919,0.28,0.28,-0.48,0.62
17.087178230285645,-0.19,0.05,0.16,0.25
17.12246608734131,-0.83,-0.08,0.4,0.92
17.124316215515137,-1.25,0.21,0.49,1.35
17.125442028045654,-1.22,0.37,0.67,1.44
17.128138065338135,-0.88,0.25,0.42,1.0
17.135969161987305,-0.39,0.02,0.15,0.41
17.14670705795288,0.05,-0.1,0.09,0.14
17.157169103622437,0.17,-0.09,0.13,0.23
17.167479038238525,0.05,-0.04,0.42,0.42
17.177241325378418,-0.1,0.02,0.69,0.69
17.18717312812805,-0.32,0.05,0.68,0.75
17.21928310394287,-0.55,0.25,0.61,0.85
17.221527099609375,-0.52,0.37,0.43,0.76
17.222707271575928,-0.33,0.26,0.39,0.57
17.227290153503418,-0.34,-0.01,0.62,0.7
17.236992120742798,-0.52,-0.07,0.72,0.89
17.247178077697754,-0.59,0.02,0.77,0.97
17.257616996765137,-0.63,0.09,0.59,0.86
17.267507076263428,-0.61,0.14,0.35,0.71
17.27787733078003,-0.42,0.18,0.25,0.52
17.288344144821167,-0.16,0.25,0.15,0.33
17.321829319000244,-0.05,0.29,0.14,0.32
17.323660135269165,-0.05,0.33,0.03,0.33
17.324693202972412,0.1,0.3,0.07,0.32
17.32776713371277,0.14,0.26,0.13,0.32
17.337568283081055,0.07,0.25,0.17,0.31
17.347897052764893,-0.07,0.22,0.25,0.34
17.357628107070923,-0.2,0.22,0.15,0.33
17.368367195129395,-0.23,0.24,-0.14,0.36
17.378501176834106,-0.1,0.31,-0.21,0.38
17.388496160507202,-0.17,0.34,0.08,0.38
17.42374324798584,-0.28,0.31,0.1,0.42
17.42533826828003,-0.33,0.42,-0.11,0.54
17.42649221420288,-0.31,0.46,-0.03,0.55
17.42848515510559,-0.35,0.34,-0.07,0.49
17.437838077545166,-0.34,0.35,-0.07,0.49
17.448293209075928,-0.4,0.34,0.05,0.52
17.458765029907227,-0.6,0.38,0.23,0.74
17.46885919570923,-0.64,0.37,0.36,0.82
17.478902101516724,-0.7,0.42,0.47,0.94
17.489288330078125,-0.82,0.48,0.54,1.09
17.52336025238037,-1.0,0.6,0.64,1.33
17.52486515045166,-1.15,0.73,0.64,1.5
17.525902271270752,-1.32,0.92,0.47,1.67
17.547441005706787,-1.5,1.01,0.32,1.83
17.54920220375061,-1.85,1.28,0.11,2.25
17.561082124710083,-2.14,1.64,0.06,2.69
17.56352424621582,-2.24,1.84,0.03,2.89
17.576675176620483,-2.35,1.98,-0.06,3.07
17.57975721359253,-2.49,2.16,-0.15,3.29
17.59333109855652,-2.78,2.19,-0.3,3.55
17.618844032287598,-3.18,2.13,-0.44,3.85
17.62043333053589,-3.48,2.17,-0.51,4.13
17.621570110321045,-3.68,2.39,-0.38,4.4
17.629137992858887,-4.28,2.92,-0.2,5.18
17.63987112045288,-4.68,3.91,0.06,6.09
17.649505138397217,-5.34,5.14,0.34,7.41
17.65989112854004,-9.01,6.82,0.54,11.31
17.670127153396606,-11.17,8.12,0.29,13.81
17.680208206176758,-13.09,8.3,-0.81,15.52
17.690956115722656,-12.11,7.53,-0.87,14.28
17.72363018989563,-9.66,7.2,-0.36,12.05
17.72593927383423,-7.6,6.99,0.95,10.36
17.727299213409424,-3.92,7.03,2.86,8.54
17.74744415283203,1.69,9.08,2.99,9.7
17.749154090881348,4.99,8.49,3.98,10.62
17.76227116584778,3.56,4.84,4.84,7.71
17.764891147613525,-1.03,2.09,4.56,5.12
17.775952100753784,-5.38,-0.03,3.72,6.54
17.780676126480103,-8.01,-1.69,3.1,8.75
17.79329514503479,-8.85,-2.98,2.86,9.76
17.8215651512146,-7.68,-3.69,4.06,9.43
17.82317018508911,-3.94,-3.01,5.0,7.04
17.824323177337646,1.58,-2.91,1.2,3.52
17.830329179763794,6.08,-3.99,-0.67,7.3
17.843757152557373,3.21,-3.96,0.57,5.12
17.850733280181885,-3.39,-3.26,1.59,4.96
17.86090326309204,-6.72,-4.43,2.06,8.3
17.871475219726562,-8.63,-5.67,1.54,10.44
17.88169002532959,-9.2,-5.69,0.24,10.82
17.89174222946167,-7.31,-4.63,-0.97,8.7
17.92391014099121,-4.58,-3.41,-1.57,5.92
17.925284147262573,-2.57,-2.68,-1.88,4.16
17.926406145095825,-1.46,-2.58,-1.75,3.44
17.947420120239258,-1.35,-2.77,-1.31,3.34
17.948549270629883,-1.73,-3.1,-0.98,3.68
17.961451053619385,-2.13,-3.37,-0.73,4.05
17.96397829055786,-2.47,-3.42,-0.51,4.24
17.976312160491943,-3.03,-3.04,-0.64,4.33
17.982012271881104,-3.86,-2.15,-0.65,4.46
17.993818283081055,-4.33,-1.32,0.16,4.52
18.023334980010986,-4.15,-0.51,1.41,4.41
18.024877071380615,-3.19,0.29,2.15,3.85
18.026023149490356,-1.94,1.04,2.05,3.0
18.031529188156128,-0.87,1.76,1.64,2.55
18.04164719581604,0.11,2.52,1.26,2.81
18.05244016647339,0.96,3.17,1.08,3.48
18.062353134155273,1.27,3.76,1.13,4.12
18.072506189346313,1.15,4.13,1.25,4.46
18.082775115966797,0.76,4.78,1.46,5.05
18.09288501739502,0.5,5.51,1.63,5.76
18.124641180038452,0.73,6.53,2.01,6.87
18.126747131347656,1.69,7.45,2.29,7.97
18.127946138381958,2.83,7.8,2.49,8.66
18.14731502532959,3.18,7.65,2.63,8.69
18.148123264312744,3.07,6.66,2.67,7.8
18.161262035369873,3.31,5.24,2.34,6.62
18.163777112960815,4.22,3.91,1.36,5.91
18.176758289337158,5.98,2.87,-0.27,6.63
18.183236122131348,8.83,2.56,-2.13,9.43
18.19331407546997,12.03,2.05,-2.05,12.37
18.226922035217285,13.44,0.96,-1.44,13.55
18.229279041290283,12.45,0.59,-1.88,12.6
18.231017112731934,10.9,1.34,-2.48,11.25
18.247467041015625,9.95,1.81,-1.68,10.25
18.248322010040283,10.54,1.19,-2.24,10.84
18.261608123779297,9.82,3.27,-4.27,11.19
18.26420307159424,7.9,4.24,-10.03,13.45
18.27682113647461,-1.69,6.02,-8.95,10.91
18.28398609161377,-11.57,12.51,4.98,17.75
18.294620990753174,-6.7,10.83,4.66,13.56
18.326383113861084,4.7,7.78,1.41,9.19
18.327961206436157,7.78,11.34,5.76,14.9
18.32908010482788,11.44,10.22,-3.97,15.84
18.348642110824585,11.07,1.84,-10.11,15.1
18.350431203842163,0.04,-6.9,5.71,8.95
18.36053705215454,-5.1,-9.58,13.94,17.66
18.364204168319702,-2.54,-5.78,2.31,6.72
18.376826286315918,3.11,-0.59,-5.61,6.44
18.38437509536743,6.01,2.84,-4.37,7.95
18.39442729949951,7.47,2.99,-1.64,8.21
18.430771112442017,6.03,0.76,-2.42,6.54
18.432566165924072,2.63,-0.31,-2.92,3.94
18.433577060699463,0.42,-0.39,-1.45,1.55
18.447757244110107,-0.38,0.16,-0.03,0.41
18.449499130249023,-0.44,0.51,1.2,1.37
18.460936069488525,-0.47,-0.03,1.23,1.31
18.465120315551758,-0.12,-0.44,1.15,1.23
18.4765043258667,1.04,-0.34,0.7,1.29
18.48537516593933,1.76,0.0,-0.27,1.78
18.495392322540283,1.47,0.26,-0.8,1.69
18.526771068572998,0.85,0.3,-0.66,1.11
18.528343200683594,0.31,0.16,0.08,0.35
18.529466152191162,0.07,0.0,0.65,0.65
18.547300100326538,0.02,-0.14,0.85,0.86
18.548036098480225,0.01,-0.2,1.0,1.01
18.562523126602173,-0.09,-0.13,0.89,0.9
18.56521701812744,-0.24,0.04,0.39,0.45
18.577059268951416,-0.32,-0.03,0.18,0.36
18.585779190063477,-0.21,-0.14,0.07,0.26
18.595670223236084,-0.06,-0.18,0.16,0.24
18.627894163131714,-0.12,-0.08,0.24,0.27
18.62946915626526,-0.26,0.01,0.45,0.51
18.630605220794678,-0.28,0.26,0.44,0.58
18.648458003997803,-0.34,0.47,0.58,0.82
18.65018320083618,-0.7,0.28,0.59,0.95
18.66074514389038,-0.79,0.04,0.38,0.87
18.665699005126953,-0.49,-0.01,0.35,0.6
18.676769256591797,-0.41,0.06,0.44,0.6
18.686398029327393,-0.69,0.2,0.48,0.86
18.69638204574585,-0.97,0.22,0.57,1.14
18.729883193969727,-0.97,0.24,0.49,1.11
18.73146915435791,-0.67,0.3,0.43,0.85
18.732580184936523,-0.47,0.34,0.42,0.71
18.7485990524292,-0.36,0.44,0.22,0.6
18.750474214553833,-0.3,0.65,0.24,0.75
18.760895252227783,-0.29,0.82,0.02,0.86
18.76677131652832,-0.19,0.93,-0.28,0.98
18.777501106262207,-0.09,0.74,-0.38,0.83
18.786954164505005,-0.14,0.52,-0.55,0.76
18.797266006469727,-0.19,0.42,-0.56,0.72
18.830172061920166,-0.33,0.29,-0.32,0.54
18.83204221725464,-0.38,0.21,-0.04,0.43
18.833155155181885,-0.34,0.17,0.27,0.46
18.848228216171265,-0.32,0.19,0.43,0.56
18.849980115890503,-0.34,0.21,0.63,0.74
18.86231803894043,-0.47,0.16,0.59,0.77
18.867072105407715,-0.51,0.19,0.37,0.65
18.8773992061615,-0.42,0.24,0.2,0.52
18.887741088867188,-0.36,0.33,0.04,0.49
18.897595167160034,-0.39,0.43,-0.03,0.58
18.93063712120056,-0.57,0.54,0.01,0.78
18.93294620513916,-0.85,0.58,-0.03,1.02
18.93414831161499,-0.96,0.59,-0.12,1.13
18.947516202926636,-0.83,0.54,-0.13,0.99
18.94923710823059,-0.79,0.56,-0.22,0.99
18.960053205490112,-0.89,0.62,-0.2,1.1
18.967653274536133,-1.12,0.65,-0.05,1.29
18.977882146835327,-1.34,0.76,0.15,1.54
18.98814105987549,-1.62,0.95,0.4,1.92
18.998258113861084,-1.87,1.14,0.69,2.29
19.03291130065918,-2.12,1.36,0.81,2.64
19.0348961353302,-2.46,1.55,0.69,2.98
19.035953998565674,-2.71,1.64,0.54,3.21
19.046187162399292,-3.01,1.88,0.16,3.55
19.047978162765503,-3.62,2.19,-0.39,4.24
19.06153416633606,-4.16,2.43,-0.79,4.88
19.06825613975525,-4.53,2.71,-1.13,5.39
19.078614234924316,-4.91,3.33,-1.15,6.04
19.08870506286621,-5.5,4.31,-0.8,7.03
19.098923206329346,-6.61,5.19,-0.18,8.4
19.132373332977295,-8.4,5.86,0.28,10.24
19.134714126586914,-8.54,6.47,0.58,10.72
19.136346101760864,-10.44,6.96,0.29,12.55
19.145291328430176,-11.57,7.49,0.95,13.81
19.148656129837036,-8.27,7.01,1.49,10.94
19.160617113113403,-4.72,6.85,1.13,8.39
19.169023036956787,-0.44,8.59,1.52,8.73
19.17903232574463,1.42,9.84,3.31,10.47
19.189359188079834,-0.46,8.19,3.96,9.1
19.19928216934204,-3.29,5.2,3.66,7.15
19.23088312149048,-5.56,2.19,3.72,7.03
19.232454299926758,-7.1,0.3,3.4,7.87
19.233582019805908,-7.48,-0.88,2.41,7.9
19.24605417251587,-6.57,-1.85,1.6,7.01
19.249042987823486,-4.35,-2.36,2.6,5.59
19.26230216026306,0.47,-1.61,1.59,2.31
19.26948118209839,5.61,-2.97,-0.95,6.41
19.27955913543701,3.81,-3.6,0.41,5.25
19.28990125656128,-2.1,-3.1,1.63,4.08
19.30023217201233,-5.79,-4.16,1.9,7.37
19.332919120788574,-8.06,-5.88,1.9,10.15
19.334436178207397,-9.31,-6.52,1.28,11.43
19.33558225631714,-8.77,-5.48,0.38,10.34
19.344966173171997,-6.54,-4.37,-0.23,7.86
19.349582195281982,-4.9,-3.69,-0.63,6.16
19.361435174942017,-4.1,-3.18,-0.74,5.24
19.3699791431427,-3.79,-2.86,-0.7,4.79
19.38039207458496,-3.63,-2.76,-0.59,4.59
19.390801191329956,-3.36,-2.65,-0.34,4.29
19.400628089904785,-3.15,-2.36,-0.21,3.94
19.43644618988037,-3.03,-1.82,-0.28,3.54
19.438021183013916,-2.7,-1.11,-0.21,2.92
19.439208984375,-2.22,-0.41,0.22,2.26
19.444984197616577,-1.76,0.3,0.78,1.94
19.449875116348267,-1.31,1.09,1.12,2.03
19.46060800552368,-1.04,1.88,1.25,2.48
19.470495223999023,-0.89,2.72,1.23,3.11
19.48111319541931,-0.56,3.52,0.99,3.69
19.491493225097656,0.07,4.16,0.79,4.23
19.501204013824463,1.0,4.51,0.6,4.65
19.53312110900879,1.99,4.92,0.05,5.3
19.535109043121338,2.9,5.61,-0.81,6.36
19.536214113235474,3.82,6.25,-1.73,7.52
19.548201084136963,4.87,6.69,-2.77,8.72
19.550875186920166,5.86,6.72,-3.38,9.53
19.56153917312622,6.27,6.16,-3.3,9.38
19.57135820388794,5.92,5.66,-3.25,8.81
19.58154320716858,5.84,4.73,-2.0,7.77
19.591965198516846,6.76,3.95,-2.3,8.16
19.60171413421631,7.64,2.6,-2.95,8.59
19.633962154388428,7.94,0.56,-3.72,8.78
19.636291980743408,7.87,0.58,-3.76,8.74
19.637485027313232,8.49,1.24,-2.05,8.82
19.645278215408325,9.43,1.62,1.03,9.62
19.651671171188354,9.99,1.6,0.89,10.15
19.661657333374023,9.26,2.42,-0.8,9.6
19.672006130218506,7.21,3.41,1.39,8.09
19.68204927444458,8.87,1.62,4.18,9.93
19.692506313323975,10.69,1.72,2.13,11.03
19.70256018638611,11.8,2.68,-8.97,15.06
19.735568046569824,1.87,3.79,-10.21,11.05
19.73789930343628,-12.93,9.2,6.31,17.07
19.73917317390442,-14.42,14.93,5.61,21.5
19.745545148849487,-0.84,7.56,-1.02,7.67
19.752169132232666,5.97,6.17,2.35,8.9
19.7622332572937,7.79,8.28,5.64,12.69
19.772711277008057,12.2,6.13,-4.2,14.28
19.78265905380249,9.08,-1.32,-4.33,10.14
19.793094158172607,-2.12,-4.54,1.78,5.31
19.802841186523438,-5.21,-5.09,9.47,11.94
19.83621311187744,-3.56,-4.36,6.36,8.49
19.837772130966187,0.09,-1.18,-6.19,6.3
19.838891983032227,5.27,1.23,-7.74,9.44
19.845781326293945,8.62,1.22,-1.65,8.86
19.85281229019165,8.05,0.69,-1.2,8.16
19.863399982452393,4.62,-0.15,-1.94,5.01
19.873141288757324,0.6,-0.42,-1.27,1.46
19.883530139923096,-1.47,0.04,0.43,1.53
19.89364528656006,-1.41,0.3,1.52,2.09
19.903813123703003,-0.44,0.12,2.07,2.11
19.938209056854248,0.57,-0.4,1.82,1.94
19.940378189086914,1.03,-0.62,1.1,1.62
19.941691160202026,1.34,-0.26,0.37,1.41
19.94540810585022,1.59,0.09,0.11,1.59
19.961843013763428,1.24,0.27,0.02,1.26
19.963574171066284,0.36,0.31,0.13,0.49
19.977299213409424,-0.4,0.27,0.41,0.63
19.983967304229736,-0.58,0.32,0.29,0.72
19.99433708190918,-0.09,0.42,0.15,0.45
20.004398107528687,0.42,0.3,0.18,0.54
20.036659240722656,0.47,0.11,0.06,0.48
20.03801417350769,0.2,0.06,0.13,0.24
20.03913712501526,-0.04,0.12,-0.07,0.14
20.045536041259766,-0.13,0.11,-0.22,0.27
20.05379009246826,-0.1,0.0,-0.08,0.12
20.064297199249268,0.03,0.02,0.17,0.17
20.074657201766968,-0.04,0.07,0.49,0.49
20.08460807800293,-0.44,0.14,0.71,0.84
20.09469223022461,-0.73,0.24,0.72,1.05
20.104979991912842,-0.65,0.16,0.63,0.91
20.13846206665039,-0.41,0.13,0.5,0.65
20.14083218574524,-0.42,0.33,0.49,0.72
20.14206314086914,-0.62,0.43,0.49,0.89
20.145326137542725,-0.78,0.28,0.45,0.94
20.161583185195923,-0.8,0.26,0.46,0.95
20.16445517539978,-0.65,0.26,0.45,0.83
20.177195072174072,-0.53,0.27,0.3,0.66
20.18557119369507,-0.44,0.44,0.19,0.65
20.195264101028442,-0.39,0.52,0.18,0.67
20.20548725128174,-0.29,0.45,0.04,0.53
20.237884044647217,-0.1,0.34,-0.05,0.35
20.23920202255249,0.06,0.22,-0.03,0.23
20.240350246429443,0.01,0.2,-0.1,0.22
20.245545148849487,-0.15,0.16,0.03,0.22
20.254966259002686,-0.22,0.13,0.12,0.28
20.26501703262329,-0.22,0.16,0.22,0.34
20.27556800842285,-0.23,0.2,0.34,0.45
20.28585910797119,-0.16,0.04,0.43,0.46
20.295720100402832,-0.13,-0.22,0.43,0.5
20.30640411376953,-0.27,-0.01,0.21,0.34
20.339824199676514,-0.6,0.53,0.02,0.8
20.34135413169861,-0.83,0.63,-0.16,1.05
20.342507123947144,-0.64,0.41,-0.34,0.83
20.346096992492676,-0.52,0.28,-0.36,0.69
20.35521697998047,-0.69,0.25,-0.22,0.76
20.366342067718506,-0.79,0.31,0.01,0.84
20.37593698501587,-0.84,0.4,0.25,0.96
20.38644313812256,-1.03,0.58,0.5,1.28
20.396568298339844,-1.25,0.75,0.67,1.6
20.406593322753906,-1.53,0.92,0.73,1.92
20.438071250915527,-1.81,1.1,0.54,2.18
20.43968105316162,-2.04,1.27,0.21,2.41
20.44081401824951,-2.25,1.44,-0.15,2.67
20.446060180664062,-2.49,1.66,-0.51,3.03
20.456229209899902,-2.71,1.82,-0.87,3.37
20.466454029083252,-3.01,1.87,-1.23,3.75
20.47679114341736,-3.41,1.9,-1.33,4.12
20.487019062042236,-3.92,2.16,-1.27,4.65
20.497132301330566,-4.72,2.51,-1.04,5.44
20.50773811340332,-5.73,2.91,-0.81,6.47
20.539684295654297,-6.78,3.85,-0.61,7.82
20.541380167007446,-6.75,5.58,-0.1,8.75
20.542520999908447,-10.08,6.76,0.03,12.13
20.54671311378479,-11.27,7.21,0.68,13.39
20.556793212890625,-9.5,7.21,1.3,11.99
20.567609310150146,-7.84,7.65,2.11,11.15
20.57696533203125,-5.54,7.52,2.63,9.7
20.58769130706787,-2.58,7.44,2.83,8.36
20.597771167755127,0.19,7.84,3.9,8.75
20.608121156692505,0.12,9.09,4.1,9.97
20.64127206802368,-1.96,7.82,5.12,9.55
20.64286708831787,-3.71,4.5,4.86,7.59
20.644026279449463,-4.83,1.79,4.54,6.86
20.647143125534058,-5.53,-0.4,4.27,6.99
20.657349109649658,-5.86,-2.12,3.58,7.18
20.667829990386963,-4.93,-3.26,2.31,6.34
20.67779016494751,-2.93,-3.14,2.74,5.09
20.687989234924316,0.81,-2.19,1.54,2.79
20.698405265808105,4.12,-2.96,-0.26,5.07
20.708720207214355,1.73,-3.24,0.34,3.68
20.739930152893066,-2.87,-3.28,1.4,4.57
20.741592168807983,-6.08,-4.25,1.82,7.63
20.74275517463684,-8.29,-5.46,2.16,10.15
20.747878074645996,-8.95,-6.0,1.88,10.93
20.75796413421631,-7.58,-5.5,0.9,9.4
20.768331050872803,-5.67,-4.37,-0.15,7.16
20.77895712852478,-4.43,-3.41,-0.93,5.66
20.788830280303955,-3.73,-2.9,-1.24,4.88
20.7991042137146,-3.39,-2.65,-1.17,4.45
20.809113025665283,-3.2,-2.64,-0.89,4.24
20.841206073760986,-3.16,-2.7,-0.66,4.2
20.842778205871582,-3.04,-2.63,-0.62,4.06
20.8439302444458,-2.96,-2.23,-0.68,3.76
20.84845519065857,-2.99,-1.56,-0.56,3.41
20.85844111442566,-2.83,-0.78,-0.11,2.93
20.868954181671143,-2.39,-0.09,0.55,2.45
20.879265308380127,-1.72,0.54,0.93,2.02
20.88937211036682,-1.06,1.15,1.0,1.85
20.899569988250732,-0.4,1.81,0.84,2.03
20.9100341796875,0.56,2.48,0.44,2.58
20.94207525253296,1.6,3.06,-0.14,3.45
20.943642139434814,2.31,3.52,-0.48,4.23
20.94477415084839,2.49,3.96,-0.37,4.69
20.96602725982666,2.4,4.58,-0.14,5.17
20.967750072479248,2.36,5.33,0.1,5.82
20.979563236236572,2.47,5.91,0.3,6.41
20.981967210769653,2.76,6.19,0.6,6.8
20.994665145874023,3.13,6.36,1.09,7.17
20.99985933303833,3.43,6.59,1.8,7.64
21.01167106628418,3.86,6.79,2.5,8.2
21.038849115371704,4.74,6.5,2.82,8.52
21.040419101715088,6.39,5.47,2.39,8.74
21.04160213470459,7.94,3.78,1.74,8.96
21.04961919784546,7.95,2.0,1.71,8.37
21.062194108963013,7.15,0.98,1.1,7.3
21.06994915008545,7.21,0.96,0.31,7.28
21.080634117126465,8.3,1.27,-0.28,8.4
21.09071922302246,9.57,1.27,-1.07,9.71
21.100731134414673,10.29,0.75,-1.9,10.49
21.11104106903076,10.42,0.77,-2.4,10.72
21.14312219619751,9.47,1.45,-2.53,9.9
21.145177125930786,8.94,0.39,-3.12,9.47
21.14631414413452,7.89,0.66,-5.64,9.72
21.16536521911621,5.99,2.83,-9.61,11.67
21.16719627380371,-0.68,2.66,-9.73,10.1
21.17997717857361,-10.38,7.58,2.73,13.13
21.182496070861816,-10.85,13.76,5.22,18.28
21.194663047790527,0.07,15.4,9.58,18.13
21.20139503479004,8.77,7.7,15.62,19.49
21.21186113357544,16.15,2.6,-12.05,20.31
21.240493297576904,11.21,-3.06,-7.93,14.06
21.2420551776886,-3.94,-5.08,5.23,8.28
21.243205070495605,-5.26,-3.21,-0.39,6.17
21.25111722946167,1.98,-1.54,-4.14,4.84
21.26142406463623,7.67,1.58,-4.15,8.86
21.27143621444702,9.63,0.92,-2.83,10.07
21.28167414665222,5.72,0.8,-2.58,6.32
21.29207706451416,0.66,0.3,-0.59,0.93
21.30203914642334,-1.62,-0.33,0.77,1.82
21.312485218048096,-1.46,0.21,0.81,1.68
21.345710277557373,0.36,0.35,1.44,1.52
21.347745180130005,1.35,-0.36,1.9,2.35
21.34908413887024,0.75,-0.69,1.39,1.72
21.3664870262146,0.17,-0.5,1.08,1.2
21.368175983428955,0.4,-0.18,0.48,0.65
21.379539012908936,0.84,0.03,0.01,0.84
21.382293224334717,0.67,-0.02,0.14,0.68
21.39462900161743,0.25,-0.18,0.41,0.51
21.40217614173889,-0.01,-0.18,0.37,0.41
21.41284704208374,-0.13,0.08,0.51,0.53
21.43797516822815,-0.26,0.28,0.61,0.71
21.439561128616333,-0.53,0.25,0.52,0.78
21.441898107528687,-0.77,0.19,0.6,0.99
21.45226812362671,-0.72,0.16,0.47,0.87
21.462565183639526,-0.35,0.05,0.21,0.41
21.472625255584717,0.1,-0.12,0.03,0.15
21.48291301727295,0.49,-0.28,0.26,0.62
21.493043184280396,0.56,-0.29,0.47,0.78
21.503130197525024,0.46,-0.21,0.6,0.78
21.513245105743408,0.23,-0.11,0.6,0.65
21.54590129852295,-0.04,0.08,0.37,0.38
21.54802417755127,-0.1,0.15,0.12,0.21
21.549177169799805,0.09,0.03,0.05,0.1
21.56632900238037,0.45,0.03,-0.13,0.46
21.568035125732422,0.41,0.1,0.16,0.45
21.58297610282898,-0.27,0.19,0.35,0.48
21.585655212402344,-0.79,0.23,0.11,0.83
21.595515251159668,-0.59,0.16,0.21,0.64
21.604007244110107,-0.44,0.1,0.29,0.53
21.61385416984558,-0.58,0.17,0.37,0.7
21.64763307571411,-0.68,0.21,0.44,0.83
21.6492121219635,-0.39,0.2,0.37,0.57
21.650333166122437,-0.3,0.28,0.18,0.44
21.665468215942383,-0.31,0.35,0.28,0.54
21.666150093078613,-0.37,0.34,0.23,0.55
21.67914915084839,-0.52,0.33,0.19,0.64
21.68394112586975,-0.64,0.33,0.33,0.79
21.69534206390381,-0.77,0.27,0.42,0.91
21.704432010650635,-0.8,0.3,0.55,1.01
21.714927196502686,-0.85,0.44,0.54,1.09
21.74905300140381,-0.8,0.54,0.62,1.14
21.750656127929688,-0.58,0.43,0.42,0.83
21.751800060272217,-0.25,0.52,0.15,0.59
21.766046047210693,-0.18,0.77,-0.25,0.82
21.76723313331604,-0.4,0.89,-0.29,1.01
21.779040098190308,-0.66,0.78,-0.44,1.11
21.78454828262329,-0.51,0.73,-0.35,0.95
21.795096158981323,-0.47,0.77,-0.07,0.9
21.804747104644775,-0.65,0.77,0.34,1.06
21.815324306488037,-0.89,0.73,0.48,1.24
21.84919023513794,-1.08,0.81,0.55,1.45
21.85154628753662,-1.22,1.07,0.63,1.74
21.85301923751831,-1.36,1.15,0.6,1.87
21.86383318901062,-1.46,1.21,0.46,1.95
21.865639209747314,-1.59,1.28,0.39,2.07
21.878847122192383,-1.81,1.28,0.18,2.22
21.885301113128662,-1.94,1.26,-0.07,2.31
21.895698070526123,-1.98,1.28,-0.25,2.37
21.905474185943604,-2.0,1.38,-0.21,2.43
21.915661334991455,-2.2,1.53,-0.24,2.69
21.94885015487671,-2.46,1.82,-0.15,3.06
21.95042324066162,-2.82,2.03,0.09,3.47
21.951566219329834,-3.32,2.3,0.24,4.04
21.955220222473145,-3.74,2.87,0.36,4.72
21.965120315551758,-4.35,3.43,0.57,5.56
21.975499153137207,-5.41,3.72,0.56,6.58
21.986050128936768,-6.48,4.16,0.3,7.7
21.995972156524658,-7.71,5.06,-0.08,9.22
22.006198167800903,-9.25,6.42,-0.27,11.26
22.016245126724243,-8.87,7.26,-0.55,11.47
22.051496982574463,-11.09,7.11,-0.77,13.19
22.053260326385498,-9.75,6.03,0.21,11.46
22.05439519882202,-7.39,5.53,0.57,9.24
22.06417417526245,-4.67,6.25,1.31,7.91
22.06596803665161,-0.79,7.77,1.92,8.04
22.079386234283447,1.72,7.58,2.2,8.07
22.086352109909058,0.99,5.74,3.22,6.65
22.09672498703003,-1.39,2.44,3.53,4.51
22.10687828063965,-4.32,0.31,3.03,5.28
22.11731219291687,-6.86,-1.24,3.13,7.64
22.150893211364746,-7.42,-2.76,2.55,8.31
22.153249263763428,-6.21,-3.79,2.65,7.74
22.15484118461609,-3.18,-3.39,3.27,5.68
22.16330909729004,2.32,-3.15,0.01,3.91
22.166174173355103,4.9,-3.63,-0.28,6.1
22.17917513847351,0.44,-3.54,1.29,3.79
22.18720817565918,-4.17,-3.83,1.94,5.98
22.19721817970276,-6.94,-4.96,1.66,8.69
22.207417011260986,-8.3,-5.75,0.49,10.1
22.217571258544922,-8.27,-5.37,-0.81,9.89
22.249569177627563,-6.66,-4.26,-1.52,8.05
22.25114631652832,-5.1,-3.51,-1.62,6.39
22.252281188964844,-4.4,-3.08,-1.29,5.52
22.264061212539673,-3.87,-2.91,-0.95,4.93
22.267136096954346,-3.29,-3.03,-0.74,4.53
22.27963614463806,-3.03,-3.24,-0.63,4.48
22.287682056427002,-3.2,-3.22,-0.7,4.59
22.29779314994812,-3.54,-2.75,-0.77,4.54
22.30854821205139,-3.62,-2.06,-0.53,4.19
22.31828212738037,-3.44,-1.32,0.04,3.68
22.351141214370728,-3.06,-0.58,0.69,3.19
22.352702140808105,-2.57,0.18,1.04,2.77
22.353880167007446,-2.21,0.95,0.94,2.58
22.363399028778076,-1.63,1.83,0.51,2.5
22.36776113510132,-0.6,2.68,0.12,2.74
22.37953019142151,0.46,3.61,-0.06,3.63
22.388031005859375,1.28,4.45,0.01,4.63
22.398515224456787,1.81,5.13,0.24,5.44
22.408790111541748,2.15,5.76,0.44,6.16
22.419239044189453,2.19,6.84,0.82,7.22
22.44813108444214,2.22,7.97,0.69,8.3
22.449560165405273,2.22,9.3,1.5,9.67
22.450589179992676,3.3,8.57,3.4,9.79
22.457942008972168,5.54,7.68,3.63,10.14
22.468406200408936,7.07,6.62,2.97,10.13
22.478865146636963,7.08,5.2,1.69,8.94
22.488944053649902,8.02,3.17,-0.29,8.62
22.498966217041016,9.55,2.37,-1.59,9.96
22.509522199630737,11.82,1.45,-2.09,12.09
22.519306182861328,13.32,0.94,-1.3,13.41
22.551045179367065,11.86,0.32,-3.97,12.51
22.552614212036133,10.8,1.78,-5.32,12.17
22.553755283355713,10.57,3.12,-4.33,11.84
22.56356430053711,11.03,3.31,-9.7,15.05
22.568804264068604,7.31,5.68,-13.15,16.08
22.579740047454834,-5.63,9.38,3.83,11.59
22.589720249176025,-10.11,15.35,10.72,21.27
22.600951194763184,1.04,16.21,11.26,19.76
22.60981321334839,13.47,7.59,-2.56,15.67
22.620102167129517,14.71,0.49,-15.6,21.44
22.651889324188232,3.66,-5.38,-1.41,6.65
22.653468132019043,-1.38,-6.44,12.5,14.12
22.654638290405273,-0.75,-5.34,3.72,6.55
22.664700031280518,1.76,-0.37,-6.85,7.08
22.66948914527893,5.3,2.5,-4.19,7.2
22.68003511428833,6.57,2.93,-1.69,7.38
22.689808130264282,4.58,1.23,-1.32,4.92
22.70029926300049,1.39,-0.72,-0.86,1.78
22.710679054260254,-0.59,-0.88,-0.06,1.06
22.721079111099243,-0.83,-0.13,0.83,1.18
22.753682136535645,-0.59,0.14,2.29,2.36
22.755824089050293,-0.8,-0.21,2.5,2.63
22.757387161254883,-0.43,-0.47,1.12,1.28
22.763748168945312,0.46,-0.4,0.46,0.76
22.769744157791138,0.62,-0.02,-0.02,0.62
22.780200004577637,0.35,0.24,-0.27,0.5
22.790654182434082,0.01,0.18,0.07,0.19
22.800990104675293,-0.57,0.14,0.44,0.73
22.811179161071777,-1.13,0.16,0.49,1.24
22.820970058441162,-1.11,0.15,0.36,1.17
22.854740142822266,-0.44,0.08,0.32,0.54
22.85707426071167,0.57,-0.1,0.29,0.64
22.85891628265381,0.86,-0.07,0.37,0.93
22.863630294799805,0.32,0.06,0.33,0.46
22.870397090911865,-0.29,0.32,0.01,0.43
22.88083815574646,-0.18,0.32,-0.41,0.55
22.891608238220215,0.51,0.14,-0.52,0.74
22.901333332061768,1.07,-0.08,0.1,1.07
22.91164207458496,0.47,0.04,0.23,0.52
22.921833038330078,-0.47,0.49,0.43,0.8
22.95380926132202,-0.57,0.38,0.46,0.82
22.95535707473755,-0.21,0.17,0.47,0.54
22.956488132476807,0.05,-0.04,0.4,0.4
22.963569164276123,0.14,-0.03,0.42,0.44
22.971301078796387,0.05,0.12,0.6,0.61
22.981428146362305,-0.37,0.39,0.5,0.73
22.992045164108276,-0.65,0.48,0.58,0.99
23.00212001800537,-0.56,0.27,0.57,0.84
23.012476205825806,-0.25,0.25,0.52,0.62
23.022244215011597,-0.15,0.21,0.41,0.48
23.055873155593872,-0.24,0.1,0.12,0.28
23.05745029449463,-0.16,0.09,-0.03,0.18
23.058640003204346,-0.2,0.17,0.12,0.28
23.064255237579346,-0.35,0.34,0.04,0.48
23.07189130783081,-0.21,0.38,0.01,0.43
23.08234930038452,-0.21,0.3,-0.05,0.36
23.092549324035645,-0.21,0.2,-0.07,0.29
23.102735996246338,-0.02,0.12,-0.09,0.15
23.112725257873535,0.07,0.08,-0.09,0.13
23.123353004455566,0.11,-0.05,0.04,0.12
23.158137321472168,0.12,-0.18,0.17,0.27
23.159837245941162,0.03,-0.25,0.38,0.45
23.16097116470337,-0.05,-0.24,0.51,0.56
23.164119243621826,-0.09,-0.28,0.61,0.67
23.172749042510986,-0.26,-0.04,0.44,0.51
23.183176040649414,-0.66,0.35,0.07,0.75
23.19333815574646,-0.77,0.86,-0.37,1.21
23.203369140625,-0.58,1.09,-0.48,1.32
23.213085174560547,-0.58,0.95,-0.41,1.18
23.22355818748474,-0.77,0.76,-0.25,1.11
23.256869316101074,-0.99,0.55,-0.02,1.13
23.259225130081177,-1.16,0.56,0.28,1.31
23.2609601020813,-1.23,0.54,0.63,1.48
23.264039039611816,-1.31,0.52,0.74,1.59
23.2796630859375,-1.4,0.63,0.83,1.74
23.283513069152832,-1.5,0.69,0.75,1.81
23.295746326446533,-1.58,0.72,0.43,1.78
23.304224014282227,-1.36,0.86,0.08,1.61
23.314021110534668,-0.99,1.05,0.0,1.44
23.324278116226196,-1.09,1.21,-0.02,1.62
23.356626987457275,-1.62,1.46,-0.08,2.18
23.358078002929688,-2.17,1.72,-0.18,2.77
23.359238147735596,-2.5,1.91,-0.32,3.16
23.36418628692627,-2.62,2.0,-0.44,3.32
23.37374210357666,-2.91,2.02,-0.5,3.57
23.38394021987915,-3.41,2.17,-0.51,4.07
23.393970012664795,-4.07,2.54,-0.57,4.83
23.4045991897583,-3.78,3.31,-0.72,5.07
23.4154109954834,-6.29,4.09,-1.29,7.61
23.424941062927246,-8.17,4.92,-0.94,9.58
23.455090045928955,-7.85,5.08,-1.01,9.4
23.456615209579468,-7.92,5.53,-1.14,9.72
23.457786083221436,-8.7,5.92,-0.75,10.54
23.46432113647461,-8.61,6.13,0.34,10.57
23.4743812084198,-7.69,5.69,1.16,9.63
23.485043048858643,-5.97,5.58,2.07,8.42
23.494661331176758,-1.97,5.5,2.37,6.3
23.50501012802124,1.44,6.35,0.94,6.57
23.51528310775757,1.57,6.87,2.06,7.34
23.525289058685303,-1.41,5.14,3.57,6.41
23.560940265655518,-4.15,3.3,3.8,6.52
23.56303119659424,-4.95,1.48,3.72,6.36
23.5640230178833,-4.95,-0.05,3.66,6.15
23.5850510597229,-4.63,-1.36,3.56,5.99
23.587507247924805,-3.21,-2.43,2.46,4.71
23.595606327056885,-0.73,-2.52,2.6,3.69
23.59739112854004,3.31,-1.54,2.61,4.48
23.61608910560608,6.34,-2.74,0.76,6.94
23.61895227432251,1.98,-3.15,1.12,3.88
23.629521131515503,-4.51,-3.57,1.35,5.9
23.653088092803955,-9.56,-4.87,1.53,10.83
23.654682159423828,-12.95,-6.11,1.64,14.41
23.655871152877808,-14.8,-5.25,0.86,15.72
23.66535210609436,-13.41,-2.97,-0.04,13.73
23.67547917366028,-7.77,-2.22,-0.87,8.12
23.685750007629395,-4.27,-1.99,-1.71,5.01
23.69612216949463,-2.53,-1.93,-2.26,3.9
23.70617914199829,-1.94,-2.17,-2.04,3.55
23.716701984405518,-2.37,-2.42,-1.57,3.73
23.726961135864258,-2.9,-2.37,-1.45,4.01
23.759512186050415,-3.04,-1.87,-1.34,3.81
23.76081609725952,-3.04,-1.3,-0.95,3.44
23.761906147003174,-2.94,-0.82,-0.4,3.07
23.765987157821655,-2.7,-0.43,-0.03,2.73
23.77640414237976,-2.49,-0.09,0.21,2.5
23.786508083343506,-2.29,0.36,0.44,2.35
23.796512126922607,-1.58,1.05,0.49,1.95
23.806647300720215,-0.31,1.79,0.19,1.82
23.81708002090454,0.98,2.49,-0.33,2.69
23.82718324661255,1.96,3.12,-0.64,3.73
23.861261129379272,2.64,3.62,-0.58,4.51
23.863036155700684,3.01,3.94,-0.23,4.96
23.86415719985962,3.2,4.69,0.13,5.67
23.88417911529541,3.43,6.02,0.4,6.94
23.886174201965332,4.38,8.08,0.79,9.22
23.897232055664062,6.1,10.41,1.68,12.18
23.899728298187256,9.19,10.02,3.63,14.07
23.91298198699951,9.83,7.98,4.7,13.5
23.91754412651062,7.55,6.0,6.02,11.36
23.930782318115234,5.52,4.08,5.71,8.92
23.957271099090576,5.51,3.12,3.05,7.02
23.959095001220703,7.53,3.04,0.7,8.15
23.96027421951294,11.03,2.39,0.36,11.29
23.967403173446655,12.87,1.53,-0.29,12.96
23.980172157287598,13.92,0.87,-5.21,14.88
23.987674236297607,15.42,2.29,-11.37,19.29
23.997931003570557,17.11,2.84,-19.76,26.29
24.008450031280518,8.9,5.45,-19.15,21.8
24.018508195877075,-10.0,11.04,2.61,15.12
24.02902126312256,-11.4,11.65,6.84,17.67
24.061222076416016,-1.4,11.07,5.69,12.52
24.0633282661438,6.05,7.81,11.06,14.82
24.064722061157227,8.88,5.17,-3.03,10.71
24.0837721824646,6.0,-1.0,-1.34,6.22
24.08491015434265,-1.59,-6.09,11.2,12.84
24.098084211349487,-4.67,-5.51,7.24,10.22
24.10059404373169,-1.71,-1.91,-7.79,8.2
24.112975120544434,4.44,0.97,-8.45,9.59
24.118799209594727,9.06,1.62,-2.21,9.46
24.129671096801758,9.08,1.59,-1.84,9.4
24.162973165512085,4.36,-0.13,-1.17,4.51
24.165276050567627,-0.5,-1.29,1.27,1.87
24.16706132888794,-3.56,-0.58,2.49,4.38
24.184348106384277,-4.06,0.51,2.18,4.63
24.186106204986572,-2.12,0.61,1.56,2.7
24.197521209716797,0.26,-0.08,0.94,0.97
24.200043201446533,1.57,-0.68,0.51,1.78
24.212532997131348,1.65,-0.63,-0.26,1.78
24.21915626525879,1.06,-0.13,-0.53,1.19
24.229711055755615,0.19,0.2,-0.22,0.35
24.257806301116943,-0.69,0.48,-0.05,0.84
24.259437084197998,-1.32,0.42,0.07,1.38
24.2605881690979,-1.1,0.18,0.1,1.11
24.26912212371826,0.01,-0.02,0.19,0.19
24.280546188354492,0.92,-0.09,0.09,0.92
24.289215087890625,0.91,-0.06,-0.03,0.91
24.29972219467163,0.44,0.05,-0.22,0.49
24.310171127319336,0.13,0.09,-0.13,0.2
24.320016145706177,0.06,0.1,0.02,0.11
24.330252170562744,0.17,-0.01,-0.02,0.17
24.363073110580444,0.53,-0.05,-0.09,0.53
24.365159034729004,0.96,-0.03,-0.07,0.96
24.366477012634277,1.2,0.03,0.1,1.2
24.383711099624634,1.11,0.03,0.51,1.22
24.384372234344482,0.73,0.14,0.72,1.03
24.39912223815918,0.49,0.17,0.88,1.02
24.4017071723938,0.43,0.28,0.77,0.92
24.41498112678528,0.42,0.49,0.54,0.84
24.421552181243896,0.37,0.5,0.34,0.7
24.430641174316406,0.18,0.35,-0.01,0.39
24.46072006225586,-0.07,0.28,0.0,0.28
24.462364196777344,-0.39,0.49,0.3,0.69
24.463497161865234,-0.96,0.63,0.48,1.24
24.48476219177246,-1.47,0.64,0.51,1.68
24.486606121063232,-1.65,0.48,0.31,1.74
24.498892307281494,-1.41,0.43,0.29,1.5
24.501360177993774,-1.15,0.48,0.45,1.32
24.512293100357056,-1.08,0.56,0.38,1.27
24.52095127105713,-0.99,0.61,0.36,1.21
24.531350135803223,-0.97,0.56,0.18,1.13
24.561546325683594,-0.88,0.4,-0.22,0.99
24.563136100769043,-0.55,0.31,-0.56,0.84
24.564260005950928,-0.23,0.34,-0.61,0.73
24.58468008041382,-0.14,0.41,-0.29,0.52
24.586453199386597,-0.33,0.5,-0.01,0.59
24.59828805923462,-0.61,0.42,0.17,0.75
24.601858139038086,-0.77,0.36,0.2,0.87
24.61395502090454,-0.56,0.3,0.17,0.65
24.621690273284912,-0.29,0.07,0.05,0.3
24.632987022399902,-0.17,-0.16,-0.15,0.27
24.666346073150635,-0.13,-0.17,-0.17,0.27
24.667916297912598,-0.17,-0.04,0.04,0.17
24.669045209884644,-0.46,0.01,0.24,0.51
24.684428215026855,-0.78,0.04,0.18,0.8
24.686143159866333,-0.83,0.05,0.04,0.83
24.69741201400757,-0.76,0.02,0.17,0.77
24.70201826095581,-0.64,0.09,0.42,0.77
24.713569164276123,-0.69,0.52,0.56,1.02
24.72271418571472,-0.79,0.93,0.58,1.35
24.73292827606201,-0.91,0.98,0.45,1.41
24.76612901687622,-0.99,0.82,0.21,1.3
24.76842498779297,-1.05,0.73,-0.17,1.29
24.769617080688477,-1.18,0.79,-0.44,1.48
24.783804178237915,-1.34,0.87,-0.61,1.71
24.785560131072998,-1.5,0.9,-0.63,1.85
24.797457218170166,-1.72,0.99,-0.47,2.03
24.802735328674316,-2.08,1.18,-0.14,2.39
24.81282901763916,-2.61,1.5,0.12,3.01
24.82293701171875,-3.3,1.75,0.32,3.74
24.833144187927246,-4.03,2.09,0.32,4.55
24.8668270111084,-4.83,2.51,0.18,5.44
24.86914825439453,-5.71,3.19,0.0,6.54
24.870614051818848,-6.5,4.05,-0.12,7.65
24.882019996643066,-7.29,5.11,-0.11,8.9
24.883443117141724,-7.88,6.19,0.02,10.02
24.898616313934326,-10.0,6.63,-0.19,11.99
24.903398990631104,-9.4,6.69,0.11,11.53
24.91413927078247,-7.21,6.99,-0.07,10.04
24.923863172531128,-4.61,7.66,0.18,8.94
24.933866024017334,-1.8,8.14,0.68,8.36
24.965103149414062,-1.44,9.5,2.42,9.9
24.966654300689697,-4.33,9.05,4.52,11.0
24.967807292938232,-5.33,6.62,3.19,9.07
24.984565258026123,-4.74,3.99,2.81,6.8
24.986305236816406,-4.78,2.15,2.86,5.97
24.99810814857483,-5.48,0.46,3.15,6.33
25.003790140151978,-5.59,-1.07,2.62,6.26
25.014398097991943,-4.4,-2.38,2.23,5.47
25.024285316467285,-1.63,-1.8,2.46,3.45
25.03423023223877,2.97,-1.77,0.13,3.45
25.066760063171387,4.48,-3.44,0.02,5.64
25.068331241607666,-0.92,-3.2,1.22,3.54
25.069446086883545,-5.58,-3.73,1.49,6.87
25.083235263824463,-8.41,-5.03,1.3,9.88
25.085108280181885,-9.95,-5.73,1.06,11.53
25.098329067230225,-10.24,-5.33,0.54,11.55
25.10434627532959,-7.93,-4.52,0.2,9.12
25.11472225189209,-5.82,-3.83,-0.23,6.97
25.12488317489624,-4.31,-3.3,-0.77,5.48
25.135348320007324,-2.96,-3.06,-1.23,4.43
25.169169187545776,-2.41,-3.12,-1.42,4.19
25.1709041595459,-2.59,-3.25,-1.15,4.31
25.17197322845459,-3.25,-3.2,-1.0,4.66
25.183382034301758,-3.9,-2.63,-1.01,4.81
25.185156106948853,-4.02,-1.85,-0.8,4.49
25.197915077209473,-3.72,-0.99,-0.22,3.85
25.20502233505249,-3.05,-0.09,0.25,3.06
25.215506076812744,-2.36,0.81,0.43,2.53
25.225403308868408,-1.71,1.66,0.36,2.41
25.235884189605713,-1.16,2.46,0.38,2.74
25.268400192260742,-0.75,3.49,0.6,3.61
25.270517110824585,-0.25,4.51,0.65,4.56
25.27201223373413,0.28,5.42,1.01,5.52
25.2818922996521,0.78,5.96,1.42,6.17
25.28525400161743,1.17,6.48,1.62,6.78
25.29765009880066,1.26,7.94,0.93,8.09
25.305498123168945,1.3,9.85,0.84,9.97
25.31622815132141,3.39,8.86,1.22,9.56
25.326964139938354,5.79,6.89,1.76,9.17
25.336433172225952,6.99,4.92,2.94,9.03
25.368386268615723,7.67,3.74,2.1,8.78
25.370485305786133,8.8,4.39,-1.2,9.9
25.371633052825928,12.19,5.05,-4.23,13.85
25.38246202468872,15.9,3.41,-4.33,16.82
25.385791301727295,15.7,1.44,-1.52,15.83
25.39870810508728,13.2,-1.46,-1.32,13.34
25.4062180519104,10.08,0.83,-4.29,10.98
25.416933059692383,8.58,5.35,-2.44,10.4
25.426639080047607,12.16,7.32,-2.15,14.35
25.436875104904175,12.79,6.98,-4.22,15.16
25.46545720100403,3.79,7.09,0.96,8.09
25.467101097106934,-8.07,17.24,11.21,22.09
25.468323230743408,1.13,20.7,13.88,24.94
25.48483920097351,12.5,10.67,-3.49,16.8
25.4866361618042,8.36,0.3,-16.58,18.57
25.498480319976807,-3.72,-5.67,-4.31,8.03
25.506947994232178,-3.93,-6.82,10.49,13.11
25.516971111297607,1.21,-6.04,7.77,9.91
25.527589321136475,4.81,-0.95,-6.11,7.83
25.53751015663147,8.28,2.15,-5.41,10.12
25.56981325149536,9.07,1.92,-0.16,9.27
25.571367263793945,5.04,0.65,0.12,5.08
25.5725040435791,-0.28,-0.68,-0.61,0.95
25.581692218780518,-3.26,-0.17,-0.86,3.37
25.58703327178955,-2.17,0.64,0.12,2.26
25.597355127334595,0.11,0.08,1.65,1.65
25.607484102249146,0.13,-0.6,2.16,2.24
25.61763906478882,-0.2,-0.83,1.25,1.51
25.62833309173584,0.39,-0.59,0.69,0.98
25.63802719116211,0.59,-0.05,-0.12,0.6
25.671735286712646,0.09,0.21,-0.51,0.55
25.673314094543457,-0.5,0.09,-0.38,0.63
25.674455165863037,-0.7,0.14,-0.26,0.75
25.68154525756836,-0.62,0.21,0.01,0.65
25.687296152114868,-0.53,0.19,0.23,0.6
25.69780731201172,-0.4,0.22,0.17,0.48
25.708177089691162,0.07,0.11,0.1,0.16
25.7182559967041,0.55,-0.08,-0.03,0.55
25.728549003601074,0.74,0.03,-0.27,0.78
25.738607168197632,0.79,0.13,-0.44,0.91
25.770026206970215,0.73,0.15,-0.43,0.86
25.77157211303711,0.68,0.15,-0.39,0.79
25.77264714241028,0.89,0.08,-0.22,0.92
25.781851291656494,0.97,0.06,0.09,0.97
25.787907123565674,0.63,0.23,0.3,0.73
25.798429012298584,0.22,0.36,0.5,0.65
25.808792114257812,0.07,0.39,0.6,0.71
25.818831205368042,0.15,0.4,0.54,0.68
25.82931423187256,0.18,0.36,0.2,0.44
25.839442253112793,0.16,0.33,0.06,0.37
25.8715500831604,0.12,0.41,0.01,0.42
25.87384033203125,0.16,0.37,0.05,0.4
25.875142097473145,0.21,0.36,0.14,0.43
25.881864070892334,-0.02,0.5,0.32,0.59
25.888928174972534,-0.45,0.51,0.39,0.78
25.899259090423584,-0.72,0.38,0.36,0.89
25.90923309326172,-0.83,0.18,0.37,0.92
25.919366121292114,-0.92,0.14,0.57,1.09
25.92996311187744,-1.07,0.18,0.67,1.27
25.939735174179077,-0.95,0.13,0.62,1.14
25.973342180252075,-0.67,0.08,0.5,0.83
25.97564721107483,-0.42,0.13,0.24,0.5
25.97751808166504,-0.29,0.19,0.09,0.35
25.981832027435303,-0.3,0.18,-0.04,0.35
25.99786114692688,-0.16,0.23,-0.23,0.36
25.999696254730225,0.03,0.24,-0.32,0.4
26.013604164123535,0.02,0.12,-0.32,0.34
26.02052617073059,-0.05,0.09,-0.1,0.14
26.030561208724976,-0.26,0.11,0.22,0.35
26.040532112121582,-0.48,0.21,0.46,0.69
26.072500228881836,-0.53,0.3,0.58,0.84
26.073819160461426,-0.51,0.36,0.63,0.88
26.07481813430786,-0.65,0.31,0.61,0.94
26.081960201263428,-0.83,0.31,0.45,0.99
26.09007716178894,-0.88,0.46,0.33,1.04
26.100231170654297,-0.93,0.47,0.12,1.04
26.11089515686035,-0.96,0.58,-0.11,1.12
26.12082529067993,-1.1,0.84,0.03,1.38
26.130856037139893,-1.49,1.07,0.23,1.84
26.141383171081543,-1.83,1.33,0.22,2.27
26.173635005950928,-2.08,1.47,0.14,2.55
26.175260066986084,-2.2,1.5,0.12,2.66
26.176403999328613,-2.26,1.68,0.08,2.81
26.18245816230774,-2.38,1.73,0.06,2.94
26.19060516357422,-2.73,1.76,-0.09,3.24
26.201155185699463,-3.22,1.9,-0.36,3.75
26.21147632598877,-3.58,1.91,-0.93,4.16
26.22157907485962,-3.7,1.93,-1.43,4.41
26.231587171554565,-3.91,2.11,-1.76,4.77
26.241919994354248,-4.41,2.53,-1.93,5.43
26.277297019958496,-4.41,3.21,-1.87,5.76
26.27940607070923,-7.62,4.18,-1.67,8.85
26.280628204345703,-9.32,5.28,-1.03,10.76
26.282551288604736,-10.92,5.96,-1.09,12.48
26.290927171707153,-10.88,6.27,-0.68,12.57
26.301345109939575,-9.42,6.64,0.28,11.52
26.31176519393921,-6.99,7.97,1.03,10.65
26.321760177612305,-4.26,8.74,2.22,9.97
26.331979274749756,0.03,9.23,2.01,9.44
26.342158317565918,1.48,10.67,2.1,10.97
26.37247323989868,-1.85,10.07,4.63,11.23
26.374122142791748,-4.71,6.44,4.96,9.39
26.375259160995483,-5.44,3.18,4.47,7.72
26.382517099380493,-5.78,0.63,3.47,6.77
26.392083168029785,-6.36,-1.19,2.83,7.06
26.40205216407776,-6.71,-2.32,1.92,7.35
26.41292428970337,-5.36,-1.67,2.04,5.97
26.422446250915527,-1.22,-0.39,1.01,1.63
26.43307113647461,3.56,-1.56,-0.74,3.95
26.44295620918274,3.36,-2.68,0.31,4.3
26.47497820854187,-0.81,-3.15,1.63,3.63
26.476513147354126,-4.41,-4.14,2.03,6.38
26.477692127227783,-6.79,-5.89,1.88,9.18
26.48237419128418,-8.07,-6.78,1.13,10.6
26.497817993164062,-8.47,-6.01,0.23,10.38
26.502620220184326,-6.79,-4.71,-0.46,8.27
26.51360321044922,-4.88,-4.04,-0.95,6.4
26.523015022277832,-3.94,-3.74,-1.1,5.54
26.533348083496094,-3.92,-3.69,-0.92,5.46
26.543601989746094,-4.01,-3.82,-0.6,5.57
26.576961040496826,-3.65,-3.92,-0.31,5.36
26.57899808883667,-3.05,-3.76,-0.43,4.86
26.58012819290161,-2.72,-3.36,-0.79,4.39
26.582886219024658,-2.84,-2.83,-0.92,4.11
26.593305110931396,-2.92,-2.26,-0.42,3.71
26.603398323059082,-2.63,-1.73,0.33,3.16
26.613569259643555,-1.9,-1.11,0.77,2.33
26.62411403656006,-0.86,-0.35,0.65,1.13
26.633894205093384,0.11,0.43,0.09,0.45
26.644203186035156,0.79,1.46,-0.51,1.73
26.68038821220398,1.47,2.71,-0.96,3.22
26.682725191116333,2.11,4.0,-0.69,4.57
26.683784008026123,2.27,5.49,-0.04,5.94
26.70101833343506,2.11,7.47,0.47,7.77
26.701877117156982,1.57,10.75,-0.35,10.86
26.71650218963623,0.57,14.16,2.06,14.32
26.718990325927734,2.0,13.29,5.45,14.5
26.731083154678345,6.33,10.72,6.65,14.11
26.734785079956055,10.46,7.31,3.86,13.33
26.74773406982422,10.13,5.2,2.44,11.64
26.776931285858154,10.42,3.69,-0.04,11.05
26.778600215911865,12.9,3.93,-1.64,13.58
26.77975606918335,13.41,2.82,1.12,13.74
26.78406524658203,11.5,1.29,0.2,11.57
26.794223308563232,10.11,2.06,-6.07,11.97
26.804594039916992,11.32,2.34,-7.87,13.98
26.81447720527649,14.86,1.23,-15.51,21.51
26.82527732849121,9.68,5.9,-13.32,17.49
26.834988117218018,-4.07,13.51,5.82,15.26
26.84593915939331,-0.54,16.87,15.79,23.11
26.87865400314331,11.79,9.56,3.95,15.68
26.880831241607666,11.83,4.25,-14.85,19.45
26.88194704055786,-1.54,-2.28,-7.42,7.91
26.902589321136475,-6.85,-4.29,8.95,12.05
26.904623985290527,-6.51,-5.94,15.1,17.48
26.915302276611328,-2.8,-2.67,-1.24,4.06
26.91774606704712,3.98,0.96,-9.2,10.06
26.931142330169678,9.5,0.51,-0.21,9.51
26.93568229675293,11.04,0.2,0.13,11.04
26.948198318481445,7.53,-0.32,-1.24,7.63
26.97783327102661,1.79,-0.86,-0.94,2.19
26.9794282913208,-2.61,0.18,-0.52,2.66
26.9805691242218,-3.47,0.91,0.59,3.63
27.00177812576294,-1.74,0.65,1.43,2.34
27.00293207168579,-0.36,0.02,1.24,1.29
27.016057014465332,0.46,-0.62,0.95,1.22
27.01846718788147,1.3,-0.9,1.14,1.94
27.03125309944153,1.82,-0.71,0.82,2.11
27.03618812561035,1.53,-0.25,0.07,1.55
27.048112154006958,0.44,0.15,-0.25,0.52
27.080498218536377,-1.23,0.69,-0.49,1.49
27.08284616470337,-2.41,1.01,-0.25,2.62
27.084609985351562,-2.23,0.77,-0.17,2.36
27.10221004486084,-1.24,0.58,0.08,1.37
27.104063034057617,-0.43,0.41,0.34,0.68
27.11556315422058,0.01,0.2,0.25,0.32
27.118000984191895,0.16,0.2,0.38,0.45
27.13062810897827,-0.22,0.39,0.39,0.59
27.13689112663269,-0.51,0.55,0.08,0.75
27.147908210754395,-0.25,0.65,-0.25,0.73
27.17933225631714,0.4,0.6,-0.74,1.03
27.180942058563232,0.96,0.39,-0.89,1.36
27.18204927444458,1.16,0.37,-0.74,1.42
27.202516078948975,0.96,0.41,-0.47,1.14
27.20423126220703,0.83,0.33,0.02,0.89
27.214877128601074,0.62,0.2,0.8,1.03
27.21744203567505,0.25,0.18,1.11,1.15
27.23078203201294,0.09,0.19,1.11,1.12
27.23721218109131,-0.02,0.19,0.88,0.9
27.247897148132324,-0.24,0.08,0.35,0.43
27.279945135116577,-0.43,0.0,0.01,0.43
27.281906127929688,-0.49,-0.21,-0.02,0.53
27.282894134521484,-0.49,-0.31,0.2,0.61
27.303929328918457,-0.63,-0.18,0.49,0.81
27.30636215209961,-0.88,-0.08,0.76,1.16
27.3142991065979,-0.98,-0.09,0.79,1.26
27.317392110824585,-0.61,-0.11,0.7,0.93
27.33094024658203,-0.25,-0.08,0.57,0.62
27.338008165359497,-0.2,-0.09,0.34,0.4
27.34820032119751,-0.14,-0.15,0.03,0.2
27.380402088165283,0.0,-0.24,-0.1,0.26
27.38201904296875,0.1,-0.31,-0.24,0.4
27.383134126663208,0.34,-0.3,-0.33,0.56
27.40280818939209,0.46,-0.18,-0.13,0.51
27.40458917617798,0.16,0.03,0.1,0.19
27.418342113494873,-0.16,0.19,0.36,0.43
27.423530101776123,-0.23,0.28,0.52,0.63
27.430636167526245,-0.24,0.29,0.56,0.67
27.43808126449585,-0.27,0.28,0.59,0.7
27.448647022247314,-0.58,0.48,0.55,0.93
27.47830629348755,-0.94,0.72,0.39,1.24
27.479738235473633,-1.13,0.84,0.26,1.43
27.480884075164795,-1.24,0.93,0.14,1.55
27.501833200454712,-1.5,1.06,0.03,1.83
27.502713203430176,-1.73,1.24,0.06,2.12
27.515820026397705,-1.96,1.27,0.16,2.34
27.518952131271362,-2.08,1.2,0.31,2.42
27.531668186187744,-2.02,1.39,0.48,2.49
27.539271116256714,-2.24,1.71,0.66,2.89
27.549406051635742,-2.67,1.77,0.69,3.27
27.58051824569702,-2.9,1.72,0.57,3.41
27.58210015296936,-3.07,1.71,0.41,3.53
27.583274126052856,-3.14,2.0,0.28,3.73
27.602742195129395,-3.39,2.58,0.21,4.26
27.604494094848633,-4.05,3.2,0.07,5.16
27.61555528640747,-4.54,3.72,0.08,5.86
27.619571208953857,-5.13,4.36,0.04,6.73
27.63161015510559,-6.08,4.76,0.44,7.73
27.639945030212402,-5.97,4.98,0.56,7.79
27.650719165802002,-8.25,5.17,0.1,9.73
27.685354232788086,-9.23,5.55,0.0,10.77
27.687677145004272,-9.27,6.01,0.12,11.04
27.689128160476685,-8.77,6.57,0.32,10.96
27.700578212738037,-6.93,6.96,1.85,9.99
27.702383041381836,-3.97,6.82,2.46,8.26
27.7150821685791,-1.47,7.28,2.74,7.91
27.72004222869873,-1.73,7.27,3.7,8.33
27.731465101242065,-3.33,5.78,2.88,7.26
27.74055004119873,-4.83,4.04,3.48,7.19
27.750463008880615,-5.27,1.92,4.61,7.26
27.782137155532837,-4.64,0.48,3.99,6.13
27.78377914428711,-1.84,-1.1,2.64,3.4
27.784887313842773,1.63,-3.1,3.37,4.86
27.802083015441895,5.32,-4.01,2.16,7.0
27.803234100341797,5.04,-4.18,0.37,6.55
27.815990209579468,-1.95,-2.64,-0.26,3.29
27.821003198623657,-7.76,-1.99,-0.24,8.01
27.83138608932495,-10.88,-2.64,-0.03,11.19
27.841252326965332,-11.24,-3.61,0.37,11.81
27.851218223571777,-7.89,-4.01,0.35,8.85
27.882973194122314,-4.72,-3.71,-0.46,6.02
27.884562015533447,-3.16,-3.12,-1.5,4.68
27.885707139968872,-2.16,-2.93,-1.78,4.05
27.90282917022705,-2.0,-3.19,-1.62,4.09
27.904629230499268,-2.82,-3.54,-1.51,4.77
27.916139125823975,-3.88,-3.85,-1.38,5.63
27.921303272247314,-4.65,-3.96,-1.2,6.22
27.931536197662354,-5.01,-3.73,-0.85,6.3
27.94206428527832,-4.86,-3.2,-0.48,5.83
27.9519362449646,-4.53,-2.52,0.14,5.18
27.984602212905884,-4.17,-1.75,0.8,4.59
27.98690700531006,-3.74,-0.8,1.29,4.03
27.988072156906128,-3.37,0.37,1.55,3.72
28.001626014709473,-2.98,1.5,1.59,3.69
28.00274920463562,-2.25,2.51,1.52,3.69
28.015823125839233,-1.18,3.44,1.53,3.94
28.02202320098877,-0.24,4.21,1.33,4.42
28.032118320465088,0.22,4.68,1.05,4.8
28.042209148406982,0.19,4.88,0.98,4.98
28.0523042678833,0.11,5.35,0.57,5.38
28.086249113082886,0.67,6.51,-0.53,6.56
28.088518142700195,1.77,9.24,-2.57,9.75
28.08976411819458,3.99,10.17,-2.31,11.16
28.100094318389893,6.71,8.46,-1.19,10.86
28.102333068847656,8.89,6.53,-0.81,11.06
28.11551809310913,10.99,4.59,-0.99,11.95
28.1229510307312,11.77,2.36,-2.94,12.35
28.132740020751953,12.57,4.32,-7.37,15.19
28.143113136291504,14.01,3.81,-6.94,16.09
28.153138160705566,14.48,1.08,0.03,14.52
28.1896653175354,14.48,-0.09,2.17,14.64
28.191779136657715,11.51,2.38,-3.49,12.26
28.193340301513672,8.48,7.34,-4.63,12.13
28.199828147888184,12.89,8.14,-8.42,17.41
28.202750205993652,10.5,8.22,-9.02,16.09
28.216248035430908,-2.4,15.13,9.61,18.08
28.223388195037842,0.18,20.9,11.72,23.96
28.23389220237732,9.82,14.69,-8.83,19.75
28.243516206741333,1.95,-1.77,-15.07,15.29
28.253900051116943,-7.76,-5.77,-2.43,9.97
28.289953231811523,-7.83,-7.48,13.16,17.04
28.292136192321777,0.01,-7.04,10.6,12.72
28.293376207351685,4.95,-1.42,-5.31,7.39
28.300005197525024,7.86,1.84,-5.82,9.95
28.30339527130127,9.05,1.48,0.1,9.17
28.316745281219482,6.82,0.73,-0.69,6.89
28.32386827468872,2.84,-0.24,-1.99,3.47
28.33402729034424,-0.7,0.08,-1.73,1.86
28.34417724609375,-1.96,0.82,-0.63,2.21
28.35420513153076,-0.6,0.82,0.12,1.02
28.389272212982178,1.22,-0.09,1.42,1.87
28.39169406890869,1.32,-1.0,1.45,2.2
28.393474102020264,0.87,-0.83,1.02,1.57
28.399890184402466,0.55,0.07,0.49,0.73
28.403648138046265,0.32,0.63,-0.09,0.71
28.419373035430908,0.45,0.61,-0.38,0.84
28.42413330078125,0.84,0.06,0.12,0.85
28.435007095336914,0.74,-0.2,0.55,0.94
28.444769144058228,-0.04,-0.03,0.62,0.62
28.45523715019226,-0.9,0.24,0.56,1.08
28.4831862449646,-0.97,0.51,0.38,1.15
28.484633207321167,-0.34,0.56,0.22,0.69
28.485743045806885,-0.05,0.46,0.05,0.46
28.50305414199829,-0.1,0.37,-0.11,0.39
28.505183219909668,-0.02,0.21,-0.25,0.32
28.516561031341553,0.01,0.08,-0.33,0.33
28.52527117729187,-0.15,0.14,-0.12,0.23
28.535359144210815,-0.21,0.13,-0.04,0.25
28.54613733291626,-0.13,0.07,0.11,0.18
28.555981159210205,-0.09,0.08,0.29,0.31
28.590647220611572,-0.09,-0.01,0.24,0.25
28.592713117599487,0.11,-0.15,0.13,0.22
28.59450626373291,0.43,-0.26,0.18,0.53
28.6003680229187,0.64,-0.33,0.23,0.75
28.605112075805664,0.66,-0.13,0.23,0.71
28.61582612991333,0.29,0.08,0.32,0.43
28.625792980194092,-0.08,0.09,0.19,0.22
28.636231184005737,-0.05,0.01,0.12,0.13
28.64627718925476,0.15,0.06,0.21,0.26
28.65592908859253,0.21,0.21,0.43,0.52
28.68898630142212,0.0,0.25,0.6,0.65
28.691014289855957,-0.22,0.19,0.61,0.67
28.692071199417114,-0.32,0.19,0.7,0.79
28.701980113983154,-0.35,0.04,0.87,0.93
28.70559024810791,-0.35,-0.11,0.91,0.98
28.716212272644043,-0.45,-0.2,0.85,0.98
28.726263999938965,-0.72,-0.03,0.73,1.02
28.736183166503906,-1.05,0.33,0.62,1.26
28.746602058410645,-1.23,0.39,0.43,1.36
28.75732421875,-1.11,0.53,-0.13,1.23
28.789947986602783,-0.88,0.66,-0.51,1.21
28.792269229888916,-0.63,0.7,-0.66,1.14
28.793662071228027,-0.33,0.73,-0.62,1.01
28.799862146377563,-0.31,0.74,-0.38,0.88
28.80620002746582,-0.41,0.76,-0.04,0.86
28.816792011260986,-0.58,0.71,0.11,0.92
28.82697105407715,-0.62,0.45,0.02,0.76
28.836985111236572,-0.47,0.28,-0.07,0.55
28.84740114212036,-0.37,0.17,0.0,0.4
28.857311248779297,-0.23,0.07,0.11,0.26
28.89101505279541,-0.2,0.1,0.17,0.28
28.89330530166626,-0.39,0.22,0.18,0.48
28.895098209381104,-0.54,0.35,0.18,0.66
28.899980068206787,-0.53,0.44,0.14,0.7
28.906439304351807,-0.53,0.47,0.08,0.71
28.917051315307617,-0.53,0.53,0.03,0.75
28.927532196044922,-0.63,0.61,0.01,0.87
28.937624216079712,-0.85,0.67,0.08,1.08
28.948047161102295,-1.14,0.78,0.17,1.39
28.957993030548096,-1.53,0.98,0.14,1.82
28.989801168441772,-1.98,0.98,0.05,2.2
28.99132204055786,-2.32,1.15,0.11,2.59
28.992455005645752,-2.64,1.67,0.36,3.14
28.99995708465576,-3.21,2.33,0.78,4.04
29.00754404067993,-4.22,3.41,1.22,5.56
29.017698287963867,-5.55,4.68,1.69,7.45
29.02833127975464,-7.03,5.59,1.82,9.16
29.03837513923645,-8.57,6.07,1.31,10.58
29.048925161361694,-9.49,6.35,0.38,11.42
29.058588981628418,-9.24,6.24,-0.51,11.16
29.091620206832886,-10.56,5.94,-1.37,12.19
29.093237161636353,-8.27,5.9,-0.88,10.19
29.094364166259766,-6.0,6.32,0.09,8.71
29.100279331207275,-3.55,7.12,1.39,8.07
29.10810422897339,-1.44,8.68,2.8,9.23
29.118609189987183,-1.9,8.96,3.81,9.92
29.128900051116943,-3.54,6.87,3.51,8.48
29.13905119895935,-4.34,4.32,2.95,6.79
29.14901614189148,-4.92,2.13,2.97,6.12
29.15958309173584,-6.04,0.46,3.03,6.77
29.194058179855347,-6.99,-0.85,2.18,7.37
29.196177005767822,-7.4,-1.66,1.81,7.79
29.197548151016235,-6.67,-1.92,3.46,7.75
29.200507164001465,-3.87,-1.41,4.44,6.05
29.20842409133911,0.08,-1.87,3.12,3.63
29.219398021697998,3.23,-3.19,1.57,4.8
29.229680061340332,3.16,-4.21,-0.05,5.26
29.239325046539307,-1.4,-4.27,0.08,4.49
29.249656200408936,-5.39,-4.65,0.51,7.13
29.259616136550903,-8.0,-5.53,-1.19,9.79
29.292538166046143,-9.63,-5.65,-1.81,11.31
29.294804096221924,-9.22,-4.41,-0.53,10.23
29.296033143997192,-5.63,-3.7,0.64,6.76
29.30011010169983,-3.45,-3.35,0.47,4.83
29.31636905670166,-2.86,-3.11,-0.21,4.23
29.319505214691162,-3.21,-3.13,-0.6,4.52
29.331529140472412,-4.05,-3.11,-0.5,5.13
29.339938163757324,-4.29,-2.84,-0.03,5.14
29.350172996520996,-3.88,-2.32,0.33,4.53
29.36048913002014,-3.35,-1.49,0.69,3.73
29.393614292144775,-2.84,-0.5,1.05,3.06
29.395039081573486,-2.57,0.41,1.32,2.91
29.39619517326355,-2.56,1.47,1.3,3.22
29.40060019493103,-1.95,2.53,0.99,3.34
29.41825819015503,-0.8,3.49,0.93,3.69
29.421579122543335,0.58,5.01,0.84,5.11
29.431634187698364,1.97,6.98,-0.08,7.25
29.440693140029907,2.99,8.84,0.18,9.33
29.45108127593994,4.14,9.91,-0.76,10.76
29.461291313171387,3.88,9.72,1.42,10.56
29.488981246948242,3.72,8.26,3.68,9.77
29.490375995635986,5.94,7.88,3.56,10.49
29.491522312164307,9.47,7.77,1.86,12.39
29.500493049621582,12.8,7.34,0.48,14.76
29.510976314544678,14.19,5.21,-2.05,15.25
29.520816326141357,12.69,3.11,-3.01,13.4
29.531349182128906,10.69,1.63,-1.66,10.94
29.54115629196167,10.57,0.23,-0.55,10.58
29.551446199417114,11.02,1.11,-3.62,11.65
29.56168031692505,11.83,3.19,-4.62,13.09
29.595072269439697,14.69,3.31,-4.59,15.74
29.597042083740234,13.81,2.76,-10.34,17.47
29.598237991333008,2.13,10.97,-0.49,11.18
29.601006984710693,-3.05,17.65,18.79,25.95
29.612065315246582,9.46,16.89,5.62,20.15
29.622328281402588,17.51,12.12,-19.58,28.92
29.63166904449463,2.18,-2.73,-14.85,15.25
29.64187526702881,-8.91,-5.53,3.32,10.99
29.652024269104004,-9.43,-6.58,11.91,16.55
29.662360191345215,-2.73,-4.24,1.01,5.14
29.695209980010986,5.34,-0.12,-2.99,6.12
29.696757316589355,9.55,1.08,-0.06,9.61
29.69786810874939,10.09,0.77,-0.05,10.11
29.70149326324463,6.07,-0.54,0.71,6.13
29.711719036102295,0.24,-0.6,-0.41,0.76
29.72284698486328,-2.54,0.6,-1.57,3.04
29.731839179992676,-1.56,1.0,-1.58,2.43
29.742470264434814,0.13,0.68,0.6,0.91
29.752730131149292,-0.13,-0.23,1.9,1.91
29.763208150863647,-0.71,-0.78,1.57,1.89
29.79595422744751,-0.1,-0.48,1.01,1.12
29.797624111175537,0.57,-0.04,0.33,0.65
29.79877018928528,0.38,0.15,-0.14,0.43
29.802114009857178,-0.19,0.2,0.02,0.27
29.81221914291382,-0.66,0.38,0.11,0.76
29.822803020477295,-0.88,0.48,0.38,1.07
29.832412242889404,-0.91,0.39,0.52,1.11
29.84343910217285,-0.61,0.29,0.46,0.81
29.852982997894287,-0.16,0.22,0.53,0.59
29.86353611946106,-0.02,0.18,0.36,0.4
29.896165132522583,-0.15,0.18,0.11,0.25
29.897854328155518,-0.31,0.4,-0.1,0.51
29.898972034454346,-0.3,0.45,-0.24,0.59
29.902969121932983,-0.04,0.33,-0.17,0.37
29.91310715675354,0.28,0.34,0.03,0.44
29.923158168792725,0.39,0.39,0.27,0.61
29.93357801437378,0.23,0.46,0.18,0.54
29.943603038787842,0.08,0.57,0.07,0.57
29.953888177871704,0.04,0.64,0.09,0.64
29.96450710296631,0.08,0.48,-0.03,0.48
29.997061252593994,0.24,0.33,0.07,0.41
29.99928903579712,0.31,0.23,0.15,0.41
30.00061011314392,0.16,0.08,0.31,0.35
30.020376205444336,0.14,-0.03,0.31,0.34
30.02197027206421,0.23,0.15,0.3,0.4
30.033226013183594,0.02,0.22,0.16,0.27
30.035851001739502,-0.22,0.07,0.06,0.23
30.04923415184021,-0.13,-0.04,0.09,0.16
30.054155111312866,-0.16,-0.08,0.23,0.29
30.066968202590942,-0.39,-0.09,0.46,0.6
30.091581106185913,-0.67,-0.14,0.59,0.9
30.09312915802002,-0.74,-0.19,0.39,0.85
30.094300270080566,-0.54,-0.18,0.08,0.57
30.103880167007446,-0.14,-0.19,-0.07,0.24
30.114073276519775,0.17,-0.2,-0.29,0.39
30.124457120895386,0.13,-0.13,-0.23,0.29
30.135069131851196,-0.05,-0.08,-0.03,0.09
30.14558506011963,-0.13,-0.07,0.13,0.19
30.155481100082397,-0.06,-0.09,0.2,0.22
30.165472984313965,-0.01,-0.04,0.25,0.25
30.19917106628418,-0.06,0.08,0.32,0.33
30.200587272644043,-0.22,0.21,0.32,0.44
30.201635122299194,-0.37,0.3,0.25,0.53
30.22079610824585,-0.42,0.49,0.33,0.72
30.22278928756714,-0.53,0.68,0.4,0.95
30.233556270599365,-0.76,0.79,0.34,1.14
30.23613405227661,-0.94,0.87,0.27,1.3
30.24950122833252,-1.13,0.99,0.14,1.5
30.2554931640625,-1.37,1.06,0.11,1.73
30.26723003387451,-1.62,1.07,0.08,1.94
30.298654079437256,-1.83,1.09,-0.03,2.13
30.30048418045044,-2.01,1.18,0.02,2.33
30.301591157913208,-2.15,1.28,0.27,2.51
30.321081161499023,-2.49,1.48,0.44,2.92
30.32290506362915,-2.9,1.74,0.68,3.44
30.333888053894043,-3.29,2.01,0.84,3.94
30.33641529083252,-3.67,2.34,0.77,4.42
30.348952293395996,-4.1,2.63,0.64,4.91
30.355923175811768,-4.53,3.03,0.53,5.47
30.3664391040802,-4.97,3.84,0.51,6.3
30.395981311798096,-5.93,4.9,0.87,7.74
30.397715091705322,-7.71,5.85,1.2,9.75
30.39886212348938,-9.42,6.4,1.08,11.43
30.405734062194824,-9.47,6.63,0.64,11.57
30.416458129882812,-11.16,6.87,-0.33,13.1
30.425786018371582,-9.44,7.06,-0.01,11.78
30.436257123947144,-7.47,7.74,0.47,10.76
30.447052001953125,-4.41,8.55,1.57,9.74
