time,ax,ay,az,atotal
0.009655952453613281,-0.01,0.04,0.2,0.2
0.014599084854125977,-0.03,0.05,0.13,0.14
0.02485203742980957,-0.09,0.06,0.01,0.1
0.034464120864868164,-0.17,0.06,0.09,0.2
0.044779062271118164,-0.18,-0.05,0.35,0.39
0.055377960205078125,-0.17,-0.01,0.31,0.35
0.06566524505615234,-0.1,0.03,0.16,0.19
0.07492208480834961,-0.04,0.11,0.1,0.15
0.08503913879394531,-0.03,0.17,0.0,0.17
0.09556102752685547,-0.05,0.12,0.04,0.13
0.1054220199584961,-0.12,0.15,0.13,0.23
0.11552000045776367,-0.08,0.15,0.13,0.21
0.12512922286987305,0.02,0.16,0.02,0.16
0.1359109878540039,-0.11,0.27,-0.1,0.3
0.14535212516784668,-0.08,0.29,-0.12,0.32
0.15535402297973633,-0.08,0.59,-0.03,0.59
0.1655139923095703,0.0,0.89,-0.06,0.89
0.17594194412231445,0.23,0.97,-0.06,0.99
0.1857309341430664,0.28,1.14,-0.38,1.23
0.19581890106201172,0.67,1.27,-1.12,1.82
0.2059311866760254,1.84,1.46,-2.71,3.58
0.21630406379699707,2.66,0.92,-3.12,4.2
0.22608518600463867,2.59,1.16,-3.44,4.45
0.23594403266906738,1.2,0.96,-1.85,2.4
0.2467050552368164,-0.96,0.12,-1.13,1.48
0.25620222091674805,-1.38,1.57,-0.67,2.19
0.2663130760192871,0.07,1.37,2.52,2.86
0.27613019943237305,-0.1,-1.15,2.6,2.84
0.28641223907470703,-3.24,-0.27,2.31,3.98
0.2964301109313965,-3.53,-0.26,4.14,5.44
0.30683302879333496,-0.99,-1.27,2.05,2.6
0.31665897369384766,0.5,-1.34,-0.1,1.43
0.32659411430358887,0.17,-1.96,-0.09,1.96
0.33661508560180664,0.01,-1.96,-0.19,1.96
0.34696197509765625,0.38,-1.68,0.16,1.72
0.35660314559936523,0.56,-1.79,0.34,1.9
0.3668241500854492,0.33,-1.55,-0.15,1.59
0.3768761157989502,0.09,-1.03,0.2,1.05
0.38716912269592285,0.06,-0.46,1.08,1.17
0.39670896530151367,-0.47,0.17,1.75,1.81
0.40677905082702637,-1.07,0.35,2.6,2.83
0.41669702529907227,-1.14,0.19,2.05,2.35
0.4281601905822754,-0.52,0.3,0.04,0.6
0.43769001960754395,0.72,0.55,-1.52,1.76
0.4478890895843506,1.2,0.75,-1.84,2.32
0.45806407928466797,0.69,0.94,-1.23,1.69
0.4682750701904297,-0.16,0.9,0.13,0.92
0.47792816162109375,-0.72,0.33,1.04,1.3
0.4880850315093994,-0.78,-0.13,1.02,1.29
0.49810314178466797,-0.35,-0.4,0.56,0.77
0.5085570812225342,0.15,-0.51,0.1,0.54
0.518214225769043,0.1,-0.28,-0.05,0.3
0.5285549163818359,-0.23,0.33,-0.15,0.42
0.5382840633392334,-0.53,0.95,-0.16,1.09
0.5485830307006836,-0.45,1.15,-0.15,1.24
0.5589871406555176,-0.13,0.91,-0.21,0.94
0.5686311721801758,0.23,0.4,-0.01,0.46
0.5785160064697266,-0.01,0.07,0.28,0.28
0.5886831283569336,-0.32,-0.14,0.67,0.75
0.5986731052398682,-0.37,-0.24,0.83,0.93
0.607795238494873,-0.4,-0.42,0.61,0.84
0.6184310913085938,0.01,-0.33,0.27,0.42
0.6284999847412109,0.43,-0.17,-0.25,0.52
0.6390230655670166,0.64,0.16,-0.69,0.95
0.6481051445007324,0.44,0.5,-0.55,0.86
0.6582851409912109,0.35,0.53,0.08,0.64
0.6682560443878174,0.35,0.16,0.71,0.8
0.6783452033996582,0.07,0.04,0.57,0.57
0.6884169578552246,-0.13,-0.1,0.2,0.25
0.6984481811523438,0.16,-0.08,-0.08,0.19
0.7086191177368164,0.31,-0.03,-0.22,0.38
0.7188892364501953,0.22,-0.12,-0.26,0.36
0.7286829948425293,0.09,-0.11,-0.35,0.37
0.738706111907959,0.03,0.03,-0.42,0.42
0.7486960887908936,0.24,0.09,-0.38,0.45
0.7593002319335938,0.21,0.21,-0.46,0.54
0.769158124923706,0.05,0.31,-0.42,0.52
0.7792320251464844,-0.12,0.23,0.09,0.27
0.7893400192260742,0.0,0.03,0.38,0.38
0.7996392250061035,0.02,-0.07,0.21,0.22
0.8092250823974609,-0.11,-0.06,0.01,0.12
0.8192861080169678,0.04,0.01,-0.13,0.13
0.8293309211730957,0.26,0.08,-0.23,0.35
0.8398730754852295,0.26,0.09,-0.24,0.36
0.849520206451416,-0.1,0.27,-0.09,0.3
0.859774112701416,-0.02,0.37,0.17,0.4
0.8696541786193848,0.15,0.29,0.12,0.34
0.8796710968017578,0.18,0.13,0.06,0.23
0.8898320198059082,0.23,-0.06,0.06,0.24
0.8998091220855713,0.19,-0.1,-0.13,0.25
0.9099011421203613,0.16,-0.06,-0.25,0.3
0.9198989868164062,0.22,0.06,-0.2,0.3
0.9303622245788574,0.21,0.22,0.06,0.31
0.9400660991668701,0.19,0.24,0.08,0.31
0.9510669708251953,0.08,0.19,-0.11,0.23
0.9610209465026855,0.32,0.12,-0.24,0.41
0.9713811874389648,0.27,0.15,-0.25,0.39
0.9811820983886719,0.27,0.1,-0.1,0.3
0.9913370609283447,0.13,0.16,0.18,0.27
1.0011591911315918,0.05,0.14,0.55,0.56
1.0116081237792969,-0.02,0.18,0.61,0.63
1.0212790966033936,0.16,0.1,0.69,0.71
1.031385898590088,0.26,-0.04,0.49,0.55
1.0415771007537842,-0.02,0.16,-0.15,0.22
1.0519111156463623,-0.29,0.38,-0.39,0.61
1.0615530014038086,-0.33,0.0,0.28,0.43
1.071619987487793,-0.51,-0.33,0.36,0.7
1.0815520286560059,-0.59,-0.07,-0.56,0.81
1.0922489166259766,0.15,0.09,-0.96,0.97
1.1019201278686523,0.44,0.07,-0.93,1.03
1.1119420528411865,0.14,0.13,-0.87,0.89
1.1219592094421387,-0.08,0.19,-0.6,0.63
1.1324291229248047,0.17,0.13,-0.04,0.21
1.1422350406646729,0.08,0.2,0.58,0.61
1.1522941589355469,-0.4,0.16,1.11,1.19
1.1622672080993652,-0.26,-0.14,1.15,1.18
1.172266960144043,0.07,-0.37,0.49,0.61
1.1824150085449219,0.14,-0.41,-0.3,0.52
1.1923730373382568,0.03,-0.22,-0.59,0.63
1.2024400234222412,0.17,0.04,-0.42,0.45
1.2125658988952637,0.12,0.25,-0.01,0.27
1.2225050926208496,0.0,0.31,0.18,0.35
1.2328190803527832,0.06,0.46,0.0,0.46
1.242605209350586,0.06,0.31,-0.13,0.34
1.2528860569000244,0.1,0.06,-0.27,0.29
1.2636981010437012,0.04,-0.03,-0.42,0.42
1.273043155670166,0.05,-0.05,-0.32,0.32
1.282893180847168,0.3,0.02,-0.13,0.32
1.293044090270996,0.18,0.03,-0.1,0.2
1.3034451007843018,0.07,0.08,-0.12,0.16
1.313157081604004,0.1,0.13,-0.24,0.29
1.323194980621338,0.19,0.21,-0.52,0.59
1.3332529067993164,0.29,0.35,-0.58,0.73
1.3435611724853516,0.38,0.34,-0.06,0.51
1.3534350395202637,0.21,0.17,0.32,0.41
1.3634629249572754,-0.01,-0.02,0.27,0.27
1.3735289573669434,0.0,-0.04,0.07,0.08
1.383993148803711,0.24,-0.06,-0.05,0.25
1.3937902450561523,0.39,0.0,-0.01,0.39
1.4037621021270752,0.23,0.05,0.12,0.26
1.4137539863586426,0.02,0.05,0.35,0.35
1.4241862297058105,-0.02,-0.01,0.5,0.5
1.4337921142578125,0.05,-0.04,0.4,0.4
1.4439690113067627,0.03,0.01,0.18,0.18
1.453969955444336,0.04,0.1,0.04,0.11
1.4646260738372803,0.11,0.17,0.1,0.22
1.4745750427246094,0.05,0.18,0.36,0.4
1.4845080375671387,-0.21,0.19,0.3,0.41
1.494631052017212,-0.21,0.21,0.08,0.3
1.5046229362487793,-0.04,0.14,-0.01,0.14
1.515052080154419,0.02,0.05,0.03,0.06
1.5244688987731934,0.08,-0.05,0.09,0.13
1.5345110893249512,-0.03,-0.01,0.13,0.13
1.5442380905151367,-0.09,0.09,0.1,0.16
1.5549302101135254,-0.06,0.13,0.01,0.14
1.564702033996582,0.03,0.08,-0.08,0.11
1.5749921798706055,0.09,0.03,0.02,0.09
1.5849790573120117,0.09,0.03,0.23,0.24
1.5947461128234863,0.03,0.05,0.33,0.33
1.6041769981384277,-0.02,0.03,0.25,0.25
1.6141271591186523,-0.03,0.07,0.13,0.15
1.6243109703063965,0.12,0.03,0.06,0.13
1.6355020999908447,0.11,0.1,0.05,0.15
1.6450691223144531,0.08,0.14,0.15,0.22
1.654818058013916,0.04,0.14,0.18,0.23
1.6651620864868164,-0.09,0.11,0.05,0.15
1.6752760410308838,-0.09,0.1,0.04,0.14
1.6853971481323242,0.08,0.05,0.07,0.11
1.6955599784851074,0.14,0.07,0.04,0.16
1.7055261135101318,0.02,0.13,0.0,0.13
1.7156460285186768,0.03,0.12,0.04,0.13
1.725703239440918,0.07,0.11,0.09,0.15
1.7356939315795898,0.04,0.07,0.13,0.15
1.745690107345581,0.04,0.08,0.05,0.1
1.7558650970458984,-0.02,0.11,-0.03,0.11
1.7662410736083984,-0.02,0.08,0.09,0.12
1.7759640216827393,0.01,0.08,0.13,0.15
1.785871982574463,-0.06,0.1,0.1,0.15
1.7959821224212646,-0.01,0.09,0.21,0.22
1.8063831329345703,0.05,0.05,0.28,0.28
1.8160991668701172,0.0,0.05,0.11,0.12
1.8261499404907227,-0.04,0.11,0.01,0.11
1.8362679481506348,-0.01,0.11,0.11,0.15
1.8466620445251465,-0.01,0.09,0.25,0.26
1.8565220832824707,-0.08,0.05,0.2,0.22
1.8660340309143066,-0.14,0.02,0.1,0.17
1.876615047454834,-0.04,0.09,0.0,0.09
1.886958122253418,0.03,0.14,-0.07,0.15
1.8966221809387207,-0.02,0.17,-0.06,0.18
1.9066882133483887,-0.06,0.14,0.13,0.2
1.9167680740356445,-0.03,0.09,0.18,0.2
1.9271211624145508,-0.03,0.05,0.02,0.06
1.9369120597839355,-0.02,0.07,-0.13,0.14
1.9468660354614258,0.02,0.1,-0.2,0.22
1.957129955291748,0.08,0.21,-0.19,0.29
1.9674320220947266,0.0,0.15,0.01,0.15
1.9771430492401123,-0.06,0.07,0.08,0.12
1.9871511459350586,-0.04,0.09,-0.06,0.11
1.9972591400146484,0.0,0.11,-0.17,0.2
2.0078771114349365,-0.06,0.07,-0.07,0.11
2.01737904548645,-0.04,0.06,0.0,0.07
2.027416229248047,-0.06,0.11,0.04,0.13
2.0374410152435303,-0.01,0.09,0.08,0.12
2.0475680828094482,0.1,0.04,0.02,0.1
2.0580081939697266,0.07,0.06,-0.04,0.1
2.067697048187256,0.04,0.1,-0.02,0.1
2.0778112411499023,0.05,0.08,0.07,0.11
2.0876331329345703,0.03,0.04,0.14,0.14
2.098212242126465,-0.07,0.08,0.15,0.18
2.108046054840088,-0.11,0.09,0.14,0.19
2.118053913116455,0.04,0.04,0.11,0.12
2.128023147583008,0.04,0.06,0.05,0.08
2.1384730339050293,-0.06,0.1,0.14,0.18
2.148081064224243,-0.01,0.08,0.24,0.25
2.1583151817321777,-0.06,0.07,0.25,0.26
2.168164014816284,0.01,0.0,0.31,0.31
2.1787991523742676,0.01,0.04,0.17,0.17
2.188754081726074,-0.07,0.09,0.04,0.12
2.1988470554351807,0.01,0.1,0.09,0.13
2.2089810371398926,0.06,0.08,0.11,0.14
2.2192540168762207,0.03,0.07,0.09,0.11
2.229008197784424,0.0,0.07,0.08,0.1
2.2387261390686035,0.02,0.07,0.08,0.1
2.24875807762146,0.05,0.09,0.04,0.11
2.259068012237549,0.05,0.05,0.07,0.09
2.26888108253479,0.04,0.0,0.13,0.13
2.2792038917541504,0.06,-0.02,0.14,0.15
2.2894129753112793,0.06,0.02,0.16,0.17
2.299057960510254,0.05,0.08,0.14,0.16
2.309479236602783,0.02,0.11,0.1,0.15
2.3191540241241455,-0.01,0.13,0.08,0.15
2.3292150497436523,0.0,0.11,0.1,0.14
2.339301109313965,-0.07,0.08,0.2,0.22
2.34979510307312,-0.04,0.02,0.24,0.24
2.3594870567321777,0.05,0.03,-0.04,0.07
2.3696460723876953,0.06,0.13,-0.22,0.26
2.37963604927063,0.07,0.14,-0.13,0.2
2.3898470401763916,0.01,0.14,0.03,0.14
2.3996801376342773,-0.09,0.14,0.07,0.18
2.4098141193389893,-0.07,0.12,0.11,0.17
2.4197258949279785,0.01,0.09,0.02,0.09
2.4300951957702637,0.02,0.07,-0.06,0.09
2.439871072769165,0.07,0.1,-0.08,0.14
2.449873924255371,0.05,0.11,-0.02,0.12
2.45999813079834,0.01,0.09,0.1,0.13
2.470276117324829,-0.06,0.11,0.22,0.25
2.4802942276000977,-0.02,0.05,0.29,0.29
2.490161895751953,0.09,0.06,0.11,0.15
2.500322103500366,0.06,0.08,0.01,0.1
2.5103580951690674,0.07,0.07,0.02,0.1
2.520665168762207,-0.01,0.1,0.09,0.13
2.5303101539611816,0.02,0.08,0.28,0.29
2.5405120849609375,0.07,0.06,0.21,0.22
2.5521860122680664,0.09,0.09,-0.1,0.16
2.5610361099243164,0.13,0.1,-0.1,0.19
2.5744240283966064,0.1,0.1,-0.03,0.14
2.5804991722106934,0.05,0.1,0.03,0.11
2.5910120010375977,0.05,0.08,0.08,0.12
2.600983142852783,0.05,0.08,0.07,0.11
2.6101911067962646,0.08,0.08,0.05,0.12
2.6205520629882812,0.09,0.12,0.09,0.17
2.630246162414551,-0.02,0.12,0.19,0.22
2.6451361179351807,-0.04,0.06,0.15,0.16
2.6511411666870117,-0.06,0.14,0.01,0.15
2.6608681678771973,-0.01,0.17,-0.17,0.24
2.674401044845581,0.14,0.15,-0.27,0.33
2.6840810775756836,0.2,0.1,-0.11,0.24
2.726452112197876,0.16,0.08,0.15,0.23
2.7283129692077637,0.1,0.04,0.22,0.24
2.729356050491333,0.1,0.04,0.25,0.27
2.7493550777435303,0.06,0.02,0.28,0.28
2.7519431114196777,0.11,0.02,0.16,0.19
2.7623720169067383,0.13,0.06,0.03,0.14
2.7642478942871094,0.08,0.07,0.06,0.12
2.7788140773773193,0.0,0.04,0.16,0.16
2.781743049621582,-0.01,-0.01,0.23,0.23
2.795650005340576,0.05,-0.03,0.19,0.19
2.816556930541992,0.08,0.05,0.06,0.11
2.817765235900879,0.01,0.11,-0.01,0.11
2.830625057220459,0.03,0.15,0.0,0.15
2.8316121101379395,0.03,0.15,0.04,0.15
2.8452110290527344,0.0,0.08,0.05,0.09
2.847032070159912,-0.04,0.03,0.07,0.08
2.86222505569458,-0.06,0.05,0.03,0.08
2.8643741607666016,0.02,0.06,0.0,0.06
2.8790791034698486,0.09,0.06,0.04,0.11
2.88263201713562,0.08,0.07,0.14,0.17
2.9203860759735107,0.02,0.08,0.15,0.17
2.921576976776123,-0.07,0.08,0.12,0.16
2.922606945037842,-0.04,0.04,0.14,0.15
2.9305081367492676,-0.02,0.02,0.15,0.15
2.9321532249450684,-0.01,0.03,0.17,0.17
2.9454779624938965,-0.01,0.05,0.16,0.16
2.95216703414917,-0.01,0.06,0.15,0.16
2.9625000953674316,-0.01,0.05,0.12,0.13
2.972788095474243,-0.01,0.02,0.17,0.17
2.983591079711914,-0.04,0.0,0.24,0.24
3.0171542167663574,-0.09,0.0,0.25,0.26
3.0184741020202637,-0.08,0.01,0.29,0.3
3.0195751190185547,0.02,0.03,0.47,0.47
3.0323681831359863,0.14,0.0,0.56,0.57
3.0336110591888428,0.07,0.06,0.3,0.31
3.0476841926574707,-0.06,0.06,0.19,0.2
3.0530130863189697,-0.02,0.0,0.28,0.28
3.063688039779663,-0.01,0.0,0.24,0.24
3.073594093322754,-0.09,0.06,0.14,0.17
3.0836501121520996,-0.06,0.08,0.14,0.17
3.117852210998535,-0.06,0.09,0.12,0.16
3.119349956512451,-0.16,0.1,-0.06,0.19
3.120434045791626,-0.22,0.07,-0.21,0.31
3.1314549446105957,-0.15,0.05,-0.24,0.28
3.133155107498169,-0.08,0.11,-0.23,0.26
3.14689302444458,-0.07,0.18,-0.23,0.3
3.153604030609131,-0.08,0.22,-0.21,0.31
3.1642050743103027,-0.14,0.21,-0.15,0.29
3.174191951751709,-0.21,0.14,-0.21,0.32
3.1844639778137207,-0.27,0.06,-0.3,0.4
3.218935966491699,-0.22,-0.02,-0.31,0.38
3.2204580307006836,-0.13,0.0,-0.23,0.26
3.2215750217437744,-0.06,0.07,-0.11,0.14
3.2308192253112793,0.01,0.01,0.15,0.15
3.2340822219848633,-0.02,-0.12,0.43,0.44
3.246267080307007,-0.09,-0.05,0.6,0.6
3.254209041595459,-0.44,-0.01,0.55,0.7
3.2649080753326416,-0.72,-0.08,0.61,0.94
3.2752420902252197,-0.77,-0.31,0.74,1.11
3.2851052284240723,-0.61,-0.48,0.83,1.13
3.3170619010925293,-0.3,-0.51,0.93,1.1
3.3185760974884033,-0.28,-0.27,0.91,0.98
3.3197240829467773,-0.84,-0.11,1.21,1.47
3.33063006401062,-1.07,-0.29,1.69,2.02
3.3343491554260254,-0.74,-0.21,0.99,1.25
3.3480820655822754,-0.67,0.13,-0.01,0.68
3.355236053466797,-0.74,0.22,-0.29,0.82
3.3653249740600586,-0.63,-0.06,-0.1,0.64
3.375563144683838,-0.21,0.23,-0.4,0.5
3.3856492042541504,0.48,0.5,-0.63,0.93
3.4163401126861572,0.96,0.32,-0.72,1.24
3.4178972244262695,0.88,0.34,-0.99,1.36
3.418982982635498,0.59,0.33,-0.99,1.19
3.4326629638671875,0.37,0.41,-1.28,1.39
3.4353020191192627,0.38,0.46,-1.29,1.42
3.4467968940734863,0.64,0.28,-0.97,1.19
3.4557600021362305,0.78,0.3,-0.89,1.22
3.4658350944519043,0.82,0.37,-0.89,1.26
3.4763221740722656,0.69,0.46,-0.77,1.13
3.486481189727783,0.58,0.26,-0.52,0.82
3.526181221008301,0.46,0.13,-0.01,0.47
3.5276241302490234,0.42,0.02,0.11,0.43
3.528701066970825,0.7,0.06,-0.72,1.0
3.550401210784912,0.8,0.14,-0.5,0.95
3.55110502243042,0.85,0.04,0.08,0.85
3.5632131099700928,0.89,-0.01,-0.06,0.89
3.564971923828125,0.92,0.0,-0.08,0.92
3.579310894012451,1.01,-0.19,0.1,1.03
3.5814740657806396,0.87,-0.06,0.25,0.9
3.5975160598754883,0.78,0.01,0.23,0.81
3.618216037750244,0.63,0.03,0.1,0.63
3.61952805519104,0.31,0.01,-0.42,0.52
3.633068084716797,0.36,0.12,-0.74,0.83
3.633951187133789,0.84,0.1,-0.36,0.91
3.6467409133911133,0.97,-0.01,0.01,0.97
3.648585081100464,0.65,-0.13,-0.06,0.66
3.6624491214752197,0.44,-0.13,0.21,0.5
3.667140007019043,0.66,-0.24,0.68,0.97
3.679608106613159,0.81,-0.32,0.49,0.99
3.6873841285705566,0.63,-0.21,0.28,0.72
3.7222840785980225,0.31,-0.05,0.18,0.36
3.7236509323120117,0.04,0.12,-0.06,0.13
3.7248051166534424,-0.2,0.2,-0.09,0.29
3.7308549880981445,-0.13,0.17,-0.29,0.36
3.737082004547119,0.21,0.15,-0.52,0.58
3.7472262382507324,0.75,0.13,-0.63,0.98
3.7573180198669434,1.11,0.06,-0.74,1.33
3.76776123046875,1.12,0.02,-0.55,1.24
3.7784042358398438,0.87,-0.07,0.06,0.87
3.7880771160125732,0.51,-0.21,0.65,0.85
3.8208799362182617,0.27,-0.27,0.95,1.02
3.8223628997802734,0.18,-0.18,0.99,1.02
3.8233931064605713,-0.12,-0.15,0.86,0.88
3.8308470249176025,-0.49,-0.18,0.57,0.77
3.837367057800293,-0.38,-0.19,0.33,0.53
3.8477611541748047,0.0,-0.11,0.15,0.18
3.857975959777832,0.24,-0.02,-0.25,0.34
3.868697166442871,0.21,0.05,-0.51,0.55
3.8786749839782715,-0.05,-0.02,-0.29,0.29
3.888613224029541,-0.42,-0.17,-0.36,0.57
3.9206719398498535,-0.72,-0.13,-0.45,0.85
3.922255039215088,-0.87,-0.11,-0.36,0.94
3.923429012298584,-0.96,-0.05,0.01,0.96
3.931033134460449,-0.98,0.05,0.12,0.98
3.9381520748138428,-0.8,0.08,-0.43,0.91
3.948789119720459,-0.38,0.15,-0.42,0.58
3.958559989929199,0.06,0.12,-0.48,0.49
3.9690909385681152,0.1,0.24,-0.68,0.72
3.978865146636963,-0.1,0.43,-0.47,0.64
3.989542007446289,-0.12,0.29,-0.07,0.32
4.023927211761475,0.26,0.05,-0.05,0.26
4.025518894195557,0.33,-0.22,0.17,0.43
4.026654243469238,0.09,-0.32,0.33,0.46
4.0309882164001465,-0.33,-0.1,0.01,0.34
4.046885967254639,-0.89,0.21,-0.11,0.92
4.048965930938721,-1.19,0.44,-0.16,1.27
4.062495231628418,-1.1,0.36,-0.27,1.18
4.069781064987183,-0.63,0.16,-0.29,0.71
4.079751968383789,-0.07,0.01,-0.26,0.26
4.089567184448242,-0.08,-0.11,0.16,0.21
4.11912202835083,-0.49,-0.06,0.34,0.59
4.120474100112915,-1.0,0.19,0.17,1.03
4.121584892272949,-1.38,0.33,0.1,1.42
4.1317150592803955,-1.27,0.25,0.08,1.29
4.139389991760254,-1.21,0.09,-0.32,1.25
4.149735927581787,-0.66,0.25,-1.0,1.22
4.160496234893799,-0.13,0.33,-0.65,0.74
4.170164108276367,-0.35,0.04,0.05,0.35
4.180446147918701,-0.06,-0.03,0.34,0.34
4.190511226654053,0.17,0.05,0.2,0.26
4.2253711223602295,-0.46,0.2,-0.19,0.53
4.226909160614014,-0.8,0.33,-0.28,0.9
4.228037118911743,-0.02,0.19,-0.53,0.56
4.231543064117432,1.07,0.01,-0.69,1.27
4.2403130531311035,1.26,-0.02,-0.54,1.37
4.250381946563721,0.9,-0.02,-0.14,0.91
4.26021409034729,0.62,0.01,0.32,0.69
4.270912170410156,0.57,0.04,0.23,0.61
4.281368017196655,0.37,0.14,0.41,0.56
4.291218042373657,0.66,0.16,0.19,0.7
4.325984954833984,1.08,-0.01,-0.5,1.19
4.327494144439697,0.67,0.15,-0.56,0.88
4.328616142272949,0.08,0.24,-0.03,0.25
4.331610202789307,-0.37,0.11,0.23,0.44
4.340946197509766,-0.68,0.05,0.54,0.86
4.350992202758789,-0.83,0.11,0.63,1.04
4.361227989196777,-1.06,0.2,0.73,1.3
4.371918201446533,-1.08,0.17,0.74,1.32
4.381678104400635,-1.09,0.09,0.66,1.27
4.392142057418823,-1.5,0.17,0.64,1.63
4.421995162963867,-2.03,0.24,0.62,2.13
4.423407077789307,-2.03,0.2,0.48,2.09
4.424455165863037,-1.99,0.16,0.88,2.18
4.431185245513916,-2.1,0.17,1.19,2.41
4.441332101821899,-2.24,0.25,1.4,2.65
4.451986074447632,-2.34,0.27,1.34,2.71
4.4616498947143555,-2.12,0.66,0.94,2.41
4.472023010253906,-1.93,0.88,0.51,2.18
4.482323169708252,-1.97,1.03,0.07,2.22
4.492398023605347,-2.16,1.55,-0.13,2.66
4.526834011077881,-2.35,2.25,0.31,3.26
4.528383016586304,-2.8,3.0,0.63,4.15
4.5295209884643555,-3.73,3.99,1.16,5.58
4.55121111869812,-4.45,5.06,0.73,6.77
4.552995204925537,-5.12,6.13,-0.27,7.99
4.565338134765625,-5.38,6.87,-0.26,8.72
4.567063093185425,-5.93,7.3,-0.26,9.4
4.579400062561035,-6.81,7.85,-0.19,10.39
4.583166122436523,-7.51,7.93,0.09,10.92
4.59664511680603,-7.43,7.23,0.22,10.36
4.6205949783325195,-6.7,5.87,0.28,8.91
4.622172117233276,-6.01,4.36,0.7,7.45
4.62337589263916,-4.85,3.06,1.75,5.99
4.632448196411133,-2.57,2.23,2.81,4.41
4.642283916473389,-0.62,1.84,3.24,3.77
4.652872085571289,0.37,1.7,2.5,3.04
4.663483142852783,0.79,0.99,0.69,1.44
4.67314600944519,0.27,-0.4,1.09,1.19
4.683479070663452,-2.62,-2.07,1.89,3.83
4.693817138671875,-5.21,-4.14,1.63,6.85
4.72541618347168,-7.88,-5.6,2.15,9.9
4.726947069168091,-8.88,-5.78,1.37,10.68
4.728085041046143,-7.65,-4.71,0.89,9.02
4.732871055603027,-7.34,-4.02,1.93,8.58
4.743035078048706,-7.75,-4.13,2.22,9.05
4.7535200119018555,-7.83,-4.4,2.05,9.21
4.763875961303711,-7.61,-4.3,1.38,8.84
4.773876190185547,-7.09,-3.91,0.78,8.13
4.784136056900024,-6.29,-3.59,0.49,7.25
4.794493198394775,-5.5,-3.31,0.33,6.42
4.8276450634002686,-4.88,-2.94,0.02,5.69
4.829186916351318,-4.38,-2.34,-0.43,4.98
4.830325126647949,-3.9,-1.54,-0.93,4.29
4.851080894470215,-3.33,-0.55,-1.49,3.68
4.852819919586182,-2.62,0.56,-2.03,3.36
4.864764213562012,-1.74,1.53,-2.52,3.42
4.867177963256836,-0.74,2.31,-2.83,3.72
4.879996061325073,0.08,2.77,-2.74,3.89
4.884629011154175,0.45,2.99,-2.42,3.87
4.896780014038086,0.5,3.18,-2.02,3.8
4.928345203399658,0.65,3.48,-1.57,3.87
4.929951190948486,1.13,3.94,-1.15,4.25
4.931077003479004,2.03,4.28,-0.77,4.79
4.951694965362549,3.65,4.72,0.0,5.96
4.953886032104492,4.75,4.82,0.75,6.8
4.9643800258636475,5.22,5.0,1.57,7.39
4.96683406829834,5.72,5.13,2.39,8.04
4.9802350997924805,6.19,4.51,2.83,8.16
4.98511004447937,5.78,3.23,2.28,7.0
4.997709035873413,6.62,2.63,1.36,7.25
5.0245161056518555,6.56,1.89,-0.07,6.82
5.026111125946045,7.71,1.48,-0.21,7.85
5.027275085449219,10.1,1.42,-0.55,10.21
5.034744024276733,11.67,1.83,-1.7,11.93
5.047912120819092,12.06,1.38,-3.16,12.54
5.055284023284912,12.39,0.93,-3.45,12.89
5.065830230712891,11.31,3.02,-1.46,11.79
5.075935125350952,8.06,1.77,-6.42,10.45
5.086398124694824,0.39,2.97,-10.62,11.03
5.096283912658691,-13.34,12.34,-0.7,18.18
5.1291399002075195,-9.69,14.94,2.5,17.98
5.131228923797607,1.97,7.33,0.9,7.64
5.132352113723755,5.8,6.03,-1.09,8.43
5.151201009750366,8.07,7.51,-0.55,11.03
5.152370929718018,11.18,2.36,-3.39,11.91
5.164454936981201,10.41,-2.63,-2.2,10.96
5.1670451164245605,3.52,-3.98,3.19,6.19
5.18012809753418,0.88,-3.29,5.34,6.33
5.186129093170166,0.63,-1.21,2.89,3.19
5.196681976318359,1.44,1.34,-1.9,2.73
5.227715969085693,2.86,2.47,-3.42,5.09
5.229295015335083,2.9,1.42,-0.34,3.24
5.230406045913696,1.31,-0.26,1.3,1.86
5.250894069671631,-0.12,-0.81,-0.45,0.93
5.251773118972778,-0.35,-0.56,-0.51,0.83
5.264954090118408,-0.14,-0.46,1.96,2.01
5.267470121383667,-0.3,-0.26,1.65,1.69
5.280141115188599,-0.26,-0.2,0.85,0.91
5.287030220031738,-0.14,-0.38,0.87,0.95
5.297284126281738,-0.32,-0.26,0.51,0.65
5.3315370082855225,-0.78,0.0,0.28,0.82
5.333120107650757,-1.4,0.1,0.31,1.43
5.334264039993286,-1.66,0.08,0.43,1.71
5.351062059402466,-1.54,-0.01,0.52,1.62
5.351871013641357,-0.99,-0.01,0.46,1.09
5.364931106567383,-0.2,-0.04,0.4,0.44
5.367513179779053,0.42,-0.25,0.28,0.56
5.380252122879028,0.75,-0.37,0.0,0.83
5.387668132781982,0.81,-0.23,-0.25,0.87
5.397789001464844,0.73,-0.12,-0.2,0.76
5.430821895599365,0.7,-0.35,-0.09,0.78
5.432363033294678,0.77,-0.43,-0.13,0.89
5.433527946472168,0.68,-0.15,-0.14,0.71
5.43706202507019,0.12,0.28,-0.09,0.31
5.447813034057617,-0.51,0.49,-0.19,0.73
5.457705020904541,-0.87,0.44,-0.46,1.07
5.467781066894531,-0.82,0.31,-0.42,0.97
5.47824501991272,-0.35,0.12,0.01,0.37
5.488314151763916,0.19,0.04,0.04,0.19
5.498411178588867,0.07,0.13,0.07,0.16
5.530117034912109,-0.39,0.2,0.23,0.49
5.531476020812988,-0.52,0.17,0.47,0.72
5.532608985900879,-0.3,0.09,0.25,0.4
5.550928115844727,-0.15,-0.01,0.21,0.25
5.551671028137207,-0.06,0.08,0.35,0.36
5.565567970275879,-0.05,0.07,0.46,0.46
5.568356037139893,-0.31,0.13,0.38,0.5
5.580365180969238,-0.59,0.43,0.17,0.74
5.589114189147949,-0.52,0.34,0.02,0.62
5.598951101303101,-0.4,0.02,-0.09,0.41
5.633057117462158,-0.28,0.14,-0.15,0.34
5.634643077850342,-0.24,0.3,0.0,0.38
5.635724067687988,-0.61,0.28,0.13,0.68
5.651434898376465,-0.93,0.37,0.07,1.0
5.653159141540527,-0.78,0.42,0.12,0.89
5.665112018585205,-0.44,0.27,0.08,0.52
5.668661117553711,-0.23,0.26,0.08,0.35
5.6805360317230225,-0.26,0.11,-0.12,0.3
5.689332962036133,-0.21,0.27,-0.02,0.34
5.699580192565918,-0.07,0.46,0.13,0.48
5.731873989105225,-0.14,0.61,0.07,0.62
5.733441114425659,-0.18,0.7,0.08,0.72
5.734534025192261,-0.28,0.66,0.11,0.72
5.751133918762207,-0.69,0.74,0.28,1.04
5.752589225769043,-1.15,0.78,0.26,1.41
5.7649922370910645,-1.47,1.02,-0.01,1.78
5.769558906555176,-1.57,1.3,0.27,2.05
5.7802441120147705,-1.73,1.4,0.35,2.25
5.790325164794922,-1.9,1.5,0.45,2.46
5.800730228424072,-1.97,1.65,0.42,2.6
5.833518028259277,-1.96,1.62,0.47,2.58
5.835093021392822,-2.14,1.65,0.58,2.76
5.836233139038086,-2.44,1.85,0.67,3.13
5.850358009338379,-2.77,2.13,0.58,3.54
5.851521968841553,-3.06,2.57,0.34,4.01
5.865233898162842,-3.38,3.29,0.32,4.72
5.869947910308838,-3.93,4.15,0.54,5.74
5.880837917327881,-4.78,4.85,0.79,6.85
5.8907151222229,-5.76,4.98,0.97,7.67
5.900747060775757,-6.3,4.92,0.89,8.04
5.932431221008301,-6.77,5.12,0.51,8.5
5.933948993682861,-7.89,5.35,0.51,9.54
5.935023069381714,-9.21,5.05,0.24,10.5
5.940091133117676,-8.52,4.51,0.14,9.64
5.950401067733765,-7.05,4.04,0.48,8.13
5.960511207580566,-6.31,3.89,1.0,7.47
5.97123908996582,-5.48,4.13,1.85,7.1
5.980978012084961,-3.32,4.48,2.14,5.97
5.99127721786499,-0.39,4.47,1.16,4.63
6.001462936401367,0.6,3.06,0.93,3.25
6.033307075500488,-1.11,1.86,1.21,2.48
6.034625053405762,-3.82,0.81,2.0,4.38
6.035759925842285,-4.06,-0.56,2.26,4.68
6.050808906555176,-1.6,-2.13,1.7,3.16
6.051980018615723,0.79,-3.75,0.93,3.94
6.064323902130127,1.34,-4.32,0.51,4.55
6.071413993835449,-1.17,-4.44,1.15,4.73
6.081576108932495,-5.44,-3.92,1.09,6.79
6.0922040939331055,-8.47,-3.78,0.75,9.3
6.102084159851074,-9.39,-4.16,0.64,10.29
6.1390440464019775,-7.96,-4.41,0.49,9.11
6.141213893890381,-6.14,-4.27,-0.05,7.47
6.142359018325806,-5.39,-4.12,-0.53,6.8
6.149065971374512,-5.28,-4.13,-0.39,6.71
6.151477098464966,-5.28,-4.23,0.06,6.76
6.165442943572998,-5.12,-4.3,0.19,6.68
6.172199010848999,-4.68,-4.07,-0.1,6.2
6.182233095169067,-4.14,-3.49,-0.92,5.49
6.19253396987915,-3.6,-2.64,-1.55,4.72
6.202729225158691,-3.06,-1.87,-1.71,3.97
6.239883899688721,-2.55,-1.28,-1.67,3.3
6.242026090621948,-2.3,-0.77,-1.49,2.84
6.243746042251587,-2.32,-0.16,-1.25,2.64
6.249048233032227,-2.07,0.68,-1.13,2.45
6.252217054367065,-1.32,1.56,-1.14,2.34
6.264775037765503,-0.34,2.48,-1.23,2.78
6.272680044174194,0.52,3.48,-1.23,3.72
6.283138036727905,1.15,4.61,-1.04,4.86
6.2930591106414795,1.79,5.73,-0.56,6.02
6.303565979003906,2.62,6.81,0.42,7.3
6.3401031494140625,3.89,7.59,1.61,8.67
6.342304229736328,6.01,8.16,2.52,10.44
6.3440821170806885,8.38,7.85,2.47,11.74
6.3513970375061035,9.49,6.47,1.77,11.62
6.353278160095215,8.02,5.6,0.92,9.82
6.365021228790283,6.86,3.82,0.9,7.9
6.373416900634766,8.07,2.88,-1.63,8.72
6.383749961853027,11.37,1.93,-3.08,11.93
6.394207954406738,13.51,2.01,-2.77,13.93
6.403966903686523,13.22,2.22,-3.28,13.8
6.437695026397705,13.0,2.63,-8.04,15.5
6.4398651123046875,8.17,1.46,-9.12,12.33
6.441007137298584,-4.03,6.87,-0.27,7.96
6.448758125305176,-7.16,20.18,8.8,23.15
6.453351974487305,3.61,20.31,18.03,27.39
6.465370178222656,12.77,8.63,0.37,15.41
6.473746061325073,14.52,2.14,-17.54,22.87
6.484157085418701,0.82,-6.08,-3.62,7.12
6.494618892669678,-5.47,-6.4,11.69,14.4
6.504618167877197,-5.75,-4.63,9.95,12.38
6.538265228271484,-2.56,-1.04,-7.35,7.85
6.539827108383179,5.39,1.61,-7.2,9.13
6.540960073471069,10.25,1.53,0.0,10.36
6.548691034317017,9.99,0.15,1.25,10.06
6.554286003112793,4.06,-1.31,-0.78,4.33
6.564627170562744,-1.86,-0.61,-1.99,2.79
6.574351072311401,-4.32,0.81,-0.91,4.48
6.584765911102295,-3.24,1.06,-0.16,3.41
6.595252990722656,-0.37,0.35,0.65,0.82
6.605073928833008,1.31,-0.56,0.62,1.55
6.637976169586182,1.47,-0.88,0.27,1.73
6.639561176300049,0.89,-0.44,-0.44,1.08
6.6406941413879395,0.58,0.12,-0.93,1.1
6.64890718460083,0.6,0.22,-0.75,0.98
6.654349088668823,0.59,0.03,-0.22,0.63
6.665575981140137,0.39,-0.12,0.39,0.56
6.67497706413269,0.17,-0.09,0.63,0.65
6.685329914093018,0.1,0.04,0.48,0.49
6.695524215698242,0.17,0.12,0.35,0.4
6.705533981323242,0.21,0.05,0.12,0.24
6.738234043121338,0.37,-0.01,-0.03,0.37
6.739794015884399,0.64,-0.08,-0.11,0.65
6.740925073623657,0.73,-0.17,-0.29,0.8
6.749192237854004,0.88,-0.14,-0.25,0.92
6.754954099655151,0.9,-0.04,0.28,0.94
6.76566219329834,0.22,0.05,0.47,0.52
6.7753190994262695,-0.56,0.1,0.52,0.77
6.785923957824707,-0.75,-0.01,0.61,0.96
6.796274185180664,-0.55,0.1,0.42,0.69
6.806495189666748,-0.46,0.34,0.07,0.57
6.839963912963867,-0.57,0.17,0.16,0.61
6.841504096984863,-0.75,-0.06,0.23,0.78
6.842588901519775,-0.77,0.09,0.1,0.78
6.8490118980407715,-0.66,0.08,0.39,0.77
6.855528116226196,-0.8,0.05,0.31,0.85
6.866014003753662,-0.75,0.27,0.43,0.9
6.876121997833252,-0.31,0.24,0.17,0.42
6.8866400718688965,-0.12,0.16,0.02,0.2
6.8969690799713135,-0.16,0.14,0.13,0.24
6.90684700012207,-0.26,-0.02,-0.06,0.26
6.93834114074707,-0.25,-0.02,-0.21,0.32
6.939863204956055,-0.11,0.1,-0.04,0.15
6.9408650398254395,-0.11,0.15,0.04,0.19
6.949056148529053,-0.08,0.23,0.16,0.29
6.956094026565552,-0.05,0.23,0.17,0.29
6.966650009155273,-0.08,0.18,0.14,0.24
6.97747802734375,-0.11,0.13,0.0,0.17
6.987100124359131,-0.05,0.1,0.06,0.12
6.997648239135742,-0.18,0.2,0.13,0.29
7.007435083389282,-0.43,0.32,0.27,0.6
7.040421009063721,-0.49,0.38,0.61,0.86
7.041964054107666,-0.51,0.4,0.78,1.01
7.043149948120117,-0.72,0.51,0.84,1.21
7.049494028091431,-0.76,0.64,0.72,1.22
7.0572850704193115,-0.65,0.6,0.77,1.17
7.06724214553833,-0.5,0.58,0.37,0.85
7.078033924102783,-0.56,0.82,0.06,0.99
7.0877790451049805,-0.79,0.95,-0.16,1.24
7.097842216491699,-0.92,1.05,-0.59,1.51
7.10802698135376,-0.89,1.01,-0.63,1.48
7.1413750648498535,-0.78,0.99,-0.71,1.44
7.1428022384643555,-0.78,0.96,-0.58,1.36
7.143876075744629,-0.92,0.93,-0.23,1.32
7.149132013320923,-1.16,1.1,0.07,1.6
7.157623052597046,-1.34,0.88,0.37,1.64
7.167909145355225,-1.43,0.89,0.24,1.7
7.1784539222717285,-1.34,0.89,0.31,1.63
7.188713073730469,-1.36,0.95,0.35,1.69
7.198445081710815,-1.46,1.1,0.4,1.87
7.208693981170654,-1.71,1.37,0.35,2.21
7.242764949798584,-2.05,1.7,0.21,2.67
7.244369983673096,-2.35,1.94,0.07,3.04
7.245506048202515,-2.66,2.23,-0.22,3.47
7.249277114868164,-2.78,2.49,-0.17,3.73
7.2655980587005615,-2.82,2.66,-0.27,3.88
7.268378019332886,-3.33,2.87,-0.38,4.41
7.280266046524048,-3.98,3.08,-0.3,5.04
7.288896083831787,-4.51,3.29,-0.16,5.58
7.2991862297058105,-4.97,3.57,-0.15,6.12
7.309261083602905,-5.55,3.95,-0.03,6.81
7.344454050064087,-6.74,4.19,0.23,7.93
7.345812082290649,-7.74,4.21,0.04,8.81
7.3469462394714355,-7.18,4.01,0.21,8.22
7.3497350215911865,-6.16,3.92,0.35,7.3
7.358867168426514,-5.49,4.2,0.46,6.92
7.369412899017334,-4.29,4.73,0.81,6.43
7.379172086715698,-2.68,4.95,1.42,5.8
7.389661073684692,-1.05,4.8,0.98,5.01
7.399875164031982,-1.02,4.0,1.21,4.3
7.4098780155181885,-2.42,3.11,1.86,4.35
7.4430131912231445,-3.64,1.63,1.16,4.15
7.444640159606934,-4.38,0.71,1.36,4.64
7.445781230926514,-4.43,-0.29,2.1,4.91
7.449604034423828,-3.31,-1.25,2.25,4.19
7.45917010307312,-1.11,-2.64,2.0,3.49
7.469326972961426,0.76,-3.6,1.94,4.15
7.479767084121704,3.01,-3.48,0.94,4.69
7.490239143371582,1.26,-3.86,1.25,4.24
7.5002501010894775,-4.25,-3.82,1.83,6.0
7.510634899139404,-8.14,-4.11,1.33,9.21
7.544778108596802,-10.41,-4.46,0.83,11.35
7.546426057815552,-11.07,-4.07,0.26,11.79
7.547554016113281,-8.82,-3.4,-0.24,9.45
7.549890995025635,-6.14,-2.83,-0.88,6.81
7.560000896453857,-5.12,-2.38,-1.3,5.79
7.570346117019653,-4.52,-2.45,-1.04,5.24
7.580405235290527,-4.25,-2.77,-0.44,5.09
7.590397119522095,-3.95,-2.88,-0.33,4.89
7.600898027420044,-3.46,-2.53,-0.76,4.35
7.611742973327637,-2.79,-1.86,-1.22,3.56
7.6420979499816895,-2.29,-1.23,-1.17,2.85
7.643693923950195,-2.23,-0.77,-0.78,2.48
7.6449079513549805,-2.6,-0.23,-0.48,2.65
7.6508400440216064,-2.99,0.38,-0.38,3.03
7.6651082038879395,-2.9,1.04,-0.36,3.1
7.670725107192993,-2.12,1.83,-0.46,2.83
7.681751012802124,-0.86,2.68,-0.59,2.87
7.691418170928955,0.35,3.47,-0.72,3.56
7.701658010482788,1.12,4.17,-0.73,4.37
7.71189022064209,1.47,4.85,-0.35,5.07
7.747165203094482,1.71,5.61,0.18,5.86
7.748516082763672,2.26,6.33,0.53,6.74
7.749645233154297,3.08,6.89,0.93,7.6
7.7695770263671875,3.61,7.32,1.65,8.32
7.771435022354126,3.41,7.46,2.59,8.6
7.783186912536621,3.2,7.24,3.08,8.49
7.785659074783325,3.76,6.69,1.71,7.86
7.797753095626831,5.42,5.14,-1.52,7.62
7.801923036575317,9.67,3.36,-4.24,11.08
7.814680099487305,13.5,1.36,-3.59,14.03
7.839570045471191,12.99,0.23,-0.41,12.99
7.841156959533691,9.69,1.08,-2.06,9.96
7.842319965362549,8.94,1.49,-5.13,10.41
7.851774215698242,11.15,1.09,-4.26,11.98
7.862154006958008,13.73,1.31,-3.45,14.21
7.872038125991821,12.83,2.73,-3.82,13.66
7.88221001625061,7.69,2.87,-6.28,10.33
7.892640113830566,-3.12,2.05,-4.37,5.74
7.903038024902344,-12.21,8.3,1.08,14.8
7.912874221801758,-9.56,10.54,2.16,14.39
7.946002960205078,0.86,9.62,4.73,10.75
7.947594165802002,6.52,10.76,8.82,15.36
7.94874906539917,12.93,9.39,-8.25,17.98
7.969089984893799,14.35,0.78,-12.83,19.26
7.970684051513672,3.63,-5.04,-1.29,6.34
7.982760906219482,-0.39,-5.96,8.59,10.46
7.984541893005371,-1.14,-5.07,9.6,10.91
7.998218059539795,0.15,-0.83,-1.61,1.81
8.003092050552368,3.1,2.16,-4.98,6.25
8.015486240386963,4.53,2.23,-0.15,5.05
8.047719955444336,2.16,0.6,1.34,2.61
8.049299240112305,-1.01,-0.76,-0.67,1.43
8.050436019897461,-1.93,-0.52,-1.76,2.66
8.069042205810547,-1.07,0.15,-0.93,1.42
8.070013999938965,0.45,0.23,0.39,0.63
8.087512969970703,1.13,-0.24,1.07,1.57
8.089925050735474,0.65,-0.75,0.82,1.28
8.09752607345581,0.0,-0.74,0.38,0.83
8.103556156158447,-0.28,-0.19,0.0,0.33
8.11513614654541,-0.34,0.39,-0.35,0.62
8.143083095550537,-0.4,0.5,-0.51,0.81
8.144646167755127,-0.35,0.3,-0.36,0.58
8.145782947540283,0.09,0.05,-0.03,0.1
8.153748035430908,0.59,-0.05,-0.01,0.59
8.165191173553467,0.77,0.02,0.06,0.77
8.173869132995605,0.53,0.06,0.09,0.54
8.183826923370361,0.15,0.07,0.12,0.2
8.194773197174072,-0.12,0.07,0.34,0.36
8.20481014251709,-0.32,0.08,0.4,0.51
8.214713096618652,-0.66,0.11,0.57,0.87
8.2480149269104,-0.91,0.13,0.96,1.32
8.249330043792725,-0.81,0.08,1.04,1.32
8.250347137451172,-0.58,-0.05,1.14,1.28
8.269050121307373,-0.56,-0.03,0.93,1.08
8.269906997680664,-0.47,0.1,0.55,0.73
8.2832350730896,-0.3,0.2,0.12,0.38
8.28579306602478,-0.04,0.16,-0.02,0.16
8.297972202301025,0.03,0.03,-0.18,0.18
8.305068016052246,-0.35,0.13,-0.1,0.38
8.31525206565857,-0.66,0.18,0.0,0.68
8.3505539894104,-0.58,0.17,-0.06,0.6
8.352103233337402,-0.4,0.14,-0.04,0.42
8.353199005126953,-0.3,0.12,0.07,0.33
8.366490125656128,-0.2,0.13,0.04,0.24
8.367627143859863,-0.23,0.16,-0.1,0.29
8.386117935180664,-0.07,0.25,-0.1,0.27
8.388553142547607,0.07,0.33,-0.08,0.34
8.39855408668518,0.03,0.17,-0.26,0.31
8.405774116516113,0.07,0.16,-0.48,0.51
8.415926933288574,0.08,0.23,-0.34,0.41
8.448726177215576,-0.17,0.32,-0.1,0.37
8.450315952301025,-0.32,0.5,0.08,0.59
8.451460123062134,-0.47,0.74,0.4,0.96
8.469787120819092,-0.82,0.8,0.5,1.24
8.47045612335205,-1.0,0.86,0.21,1.33
8.482507228851318,-1.15,0.92,-0.04,1.47
8.485682964324951,-1.13,1.02,-0.19,1.53
8.498576164245605,-1.17,1.05,-0.18,1.58
8.506444931030273,-1.22,1.01,-0.21,1.59
8.516507148742676,-0.99,0.89,-0.23,1.35
8.549836158752441,-0.72,0.9,-0.13,1.15
8.551412105560303,-0.63,0.94,-0.08,1.13
8.552521228790283,-0.83,0.84,0.01,1.18
8.569304943084717,-1.05,0.81,0.02,1.32
8.570037126541138,-1.13,0.9,-0.01,1.44
8.582626104354858,-1.14,1.02,0.08,1.53
8.586242198944092,-1.26,1.17,0.14,1.72
8.598772048950195,-1.48,1.31,0.22,1.98
8.606916904449463,-1.63,1.36,0.29,2.14
8.61745309829712,-1.75,1.45,0.36,2.3
8.651143074035645,-1.98,1.54,0.46,2.55
8.652673244476318,-2.24,1.71,0.48,2.85
8.653817176818848,-2.41,2.02,0.49,3.18
8.66978120803833,-2.71,2.29,0.6,3.59
8.671549081802368,-3.25,2.48,0.65,4.13
8.682460069656372,-3.96,2.64,0.51,4.78
8.687139987945557,-4.61,2.98,0.34,5.49
8.698992013931274,-5.23,3.56,0.21,6.33
8.708086967468262,-6.02,4.3,0.26,7.4
8.71770715713501,-6.47,5.03,0.42,8.2
8.750886917114258,-8.5,5.11,0.11,9.91
8.752467155456543,-9.08,5.31,0.35,10.52
8.753607034683228,-7.89,5.17,0.59,9.45
8.769379138946533,-6.49,5.12,0.75,8.3
8.770530223846436,-4.56,5.03,1.81,7.02
8.782660007476807,-2.72,5.96,2.22,6.91
8.787868022918701,-2.41,6.61,3.24,7.74
8.798490047454834,-2.52,6.2,2.89,7.28
8.807989120483398,-2.92,4.89,3.23,6.54
8.818405151367188,-3.83,2.75,4.03,6.2
8.85313105583191,-4.7,1.28,3.08,5.76
8.854703903198242,-5.65,0.23,2.72,6.27
8.855845928192139,-6.55,-0.74,2.88,7.19
8.867914199829102,-6.27,-1.44,3.61,7.37
8.869071960449219,-3.6,-1.21,4.52,5.9
8.883433103561401,1.51,-0.99,1.88,2.6
8.888120174407959,5.07,-2.6,0.23,5.7
8.89903712272644,1.12,-3.1,0.51,3.33
8.908776044845581,-4.54,-3.18,1.11,5.65
8.919042110443115,-7.86,-4.16,1.22,8.97
8.95207691192627,-9.63,-4.9,0.76,10.83
8.953643083572388,-10.36,-4.53,0.11,11.3
8.954732894897461,-8.28,-3.67,0.11,9.05
8.96869421005249,-5.01,-3.09,0.16,5.88
8.96987509727478,-3.27,-2.49,-0.32,4.12
8.982532024383545,-2.47,-2.34,-0.91,3.52
8.988686084747314,-2.82,-2.34,-1.52,3.96
8.999190092086792,-3.55,-2.34,-1.69,4.57
9.009243965148926,-3.81,-2.22,-1.36,4.61
9.019728183746338,-3.68,-1.96,-1.0,4.28
9.057627201080322,-3.37,-1.39,-0.9,3.75
9.059705018997192,-2.96,-0.73,-0.77,3.14
9.060850143432617,-2.37,-0.09,-0.64,2.45
9.066869020462036,-1.8,0.57,-0.53,1.96
9.068953037261963,-1.53,1.44,-0.42,2.14
9.084729194641113,-1.35,2.52,-0.34,2.87
9.089396953582764,-0.99,3.59,-0.27,3.73
9.099816083908081,-0.31,4.58,0.04,4.59
9.109791040420532,0.85,5.49,0.32,5.56
9.120522022247314,2.23,6.42,0.33,6.8
9.15892505645752,3.36,7.09,0.05,7.84
9.160707950592041,3.97,7.11,-0.38,8.15
9.161871910095215,5.02,7.94,-2.25,9.65
9.166760921478271,7.07,9.35,-3.99,12.38
9.169486999511719,9.88,8.66,-4.45,13.87
9.183173179626465,11.92,5.7,-4.64,14.0
9.189899921417236,13.01,0.33,-6.34,14.47
9.200707912445068,10.9,0.28,-10.35,15.03
9.210621118545532,8.03,0.91,-6.14,10.14
9.220943927764893,6.73,2.05,-0.1,7.03
9.258990049362183,7.38,2.05,-0.33,7.66
9.260424137115479,10.07,1.48,-2.13,10.39
9.261534214019775,11.15,2.8,1.26,11.56
9.266630172729492,11.88,5.43,4.62,13.85
9.270145893096924,10.21,3.04,5.15,11.83
9.283422946929932,-0.42,1.34,7.69,7.81
9.291086196899414,-8.33,8.28,8.55,14.52
9.301112174987793,-4.09,19.04,5.75,20.3
9.311182022094727,6.18,13.35,16.17,21.86
9.32137393951416,14.34,5.2,-7.6,17.04
9.356147050857544,15.7,-0.77,-20.33,25.69
9.357770919799805,2.6,-4.75,-4.52,7.05
9.358915090560913,-0.44,-5.34,0.68,5.4
9.366722106933594,2.08,-2.98,-2.31,4.3
9.37122106552124,5.6,0.81,-4.02,6.94
9.383393049240112,6.93,1.57,2.19,7.43
9.391459941864014,3.14,1.28,1.81,3.84
9.401693105697632,-1.46,0.27,1.0,1.79
9.412391185760498,-3.21,-0.38,0.79,3.32
9.422209024429321,-2.18,-0.02,-0.66,2.27
9.454820156097412,0.76,0.31,-0.27,0.86
9.456396102905273,1.8,0.09,0.67,1.92
9.457569122314453,0.68,-0.31,0.16,0.76
9.467412948608398,-0.04,-0.54,0.41,0.67
9.47134017944336,-0.11,-0.64,0.76,0.99
9.483429908752441,-0.15,-0.41,0.58,0.72
9.491774082183838,-0.41,-0.16,0.61,0.75
9.502192974090576,-0.8,0.12,0.06,0.81
9.512699127197266,-0.84,0.11,-0.05,0.84
9.522685050964355,-0.62,-0.01,0.0,0.62
9.554870128631592,-0.08,-0.04,-0.08,0.12
9.556421041488647,0.1,0.01,0.02,0.1
9.557540893554688,-0.22,0.12,0.03,0.25
9.567019939422607,-0.82,0.27,0.01,0.86
9.571906089782715,-1.12,0.3,0.12,1.16
9.582442045211792,-0.61,0.23,0.04,0.65
9.592477083206177,0.0,0.18,0.0,0.18
9.602963924407959,0.15,0.23,-0.02,0.27
9.613080024719238,-0.03,0.14,0.18,0.23
9.623505115509033,-0.27,0.05,0.5,0.57
9.65706205368042,-0.47,0.09,0.74,0.88
9.65864109992981,-0.59,0.15,0.58,0.84
9.659751892089844,-0.57,0.22,0.34,0.69
9.66731309890747,-0.49,0.32,0.28,0.64
9.672530174255371,-0.35,0.39,0.23,0.57
9.683520078659058,-0.23,0.41,0.14,0.49
9.693230152130127,-0.12,0.23,0.2,0.32
9.703519105911255,-0.08,0.26,0.2,0.33
9.713678121566772,-0.03,0.51,0.27,0.57
9.72375202178955,-0.08,0.62,-0.1,0.63
9.758177042007446,-0.1,0.63,-0.21,0.67
9.759695053100586,0.0,0.63,-0.32,0.7
9.76070499420166,-0.16,0.63,-0.24,0.69
9.76705002784729,-0.36,0.66,-0.18,0.77
9.773112058639526,-0.6,0.7,0.03,0.92
9.784087181091309,-0.78,0.57,0.13,0.97
9.793992042541504,-0.53,0.23,0.14,0.59
9.804104089736938,-0.34,0.03,0.13,0.36
9.814534187316895,-0.49,0.02,0.17,0.51
9.824453115463257,-0.63,0.05,0.06,0.63
9.8596670627594,-0.44,0.08,0.13,0.46
9.861239910125732,-0.22,0.07,0.2,0.3
9.862361907958984,-0.37,0.07,0.3,0.48
9.867238998413086,-0.35,0.06,0.14,0.38
9.874007225036621,-0.19,-0.03,-0.08,0.2
9.884201049804688,-0.16,0.03,-0.02,0.16
9.894100189208984,-0.37,0.23,0.15,0.46
9.904823064804077,-0.72,0.33,0.45,0.91
9.915160179138184,-0.9,0.28,0.69,1.16
9.92500901222229,-0.91,0.2,0.81,1.23
9.960408210754395,-0.85,0.25,0.73,1.14
9.962035179138184,-0.86,0.34,0.49,1.04
9.96318507194519,-0.97,0.41,0.32,1.1
9.967217922210693,-1.11,0.51,0.18,1.23
9.983660221099854,-1.26,0.76,0.19,1.48
9.985462188720703,-1.25,0.95,0.32,1.6
9.998091220855713,-1.25,1.16,0.48,1.77
10.005252122879028,-1.49,1.46,0.36,2.11
10.01607608795166,-1.67,1.63,0.39,2.36
10.025551080703735,-1.71,1.68,0.16,2.4
10.061450958251953,-1.88,1.63,-0.27,2.5
10.062870025634766,-1.85,1.55,-0.62,2.49
10.064037084579468,-1.76,1.54,-0.75,2.45
10.068454027175903,-2.01,1.77,-0.52,2.72
10.075109004974365,-2.68,2.17,-0.24,3.45
10.085676193237305,-3.27,2.48,0.09,4.1
10.095717906951904,-3.74,2.85,0.24,4.7
10.105684041976929,-4.34,3.26,0.43,5.44
10.116238117218018,-5.14,3.4,0.56,6.18
10.126798152923584,-5.92,3.56,0.43,6.92
10.157757043838501,-6.26,4.16,0.49,7.53
10.15930700302124,-6.64,4.72,0.77,8.18
10.160423040390015,-9.5,5.44,0.71,10.97
10.167628049850464,-10.7,5.97,0.77,12.27
10.175769090652466,-8.93,5.94,0.88,10.76
10.185794115066528,-6.62,6.45,0.81,9.27
10.196176052093506,-3.56,7.22,0.52,8.06
10.20662808418274,-1.53,6.77,2.4,7.34
10.216562032699585,-3.15,6.24,4.44,8.28
10.22682809829712,-4.98,5.94,2.53,8.15
10.261322021484375,-5.07,4.67,1.65,7.08
10.26289701461792,-4.82,2.58,2.2,5.89
10.264047145843506,-5.12,0.81,2.93,5.95
10.267941951751709,-5.21,-0.5,2.76,5.91
10.276403903961182,-4.17,-1.78,3.06,5.47
10.286302089691162,-1.76,-2.09,3.32,4.29
10.296905040740967,3.12,-2.13,1.32,4.0
10.307217121124268,5.21,-3.44,0.55,6.26
10.31711721420288,0.29,-3.44,0.98,3.58
10.327570915222168,-4.72,-3.43,1.49,6.02
10.359704971313477,-7.59,-4.47,1.04,8.86
10.361298084259033,-9.31,-5.24,0.44,10.69
10.362483978271484,-9.84,-4.69,-0.21,10.9
10.36756420135498,-7.19,-3.77,-0.43,8.12
10.377255916595459,-4.44,-3.16,-0.6,5.48
10.386951923370361,-3.48,-2.75,-0.76,4.5
10.397304058074951,-3.44,-2.77,-0.69,4.47
10.407779216766357,-3.77,-2.84,-0.47,4.74
10.41896390914917,-3.99,-2.85,-0.52,4.93
10.428088188171387,-4.08,-2.53,-0.83,4.87
10.463359117507935,-3.87,-1.89,-0.95,4.41
10.464976072311401,-3.41,-1.2,-0.5,3.64
10.466126918792725,-2.78,-0.61,0.11,2.84
10.487056016921997,-2.16,-0.06,0.34,2.18
10.488831996917725,-1.7,0.53,-0.02,1.78
10.499348163604736,-0.96,1.14,-0.77,1.67
10.501090049743652,0.29,1.78,-1.61,2.41
10.51526689529419,1.6,2.38,-2.13,3.57
10.518054962158203,2.41,2.86,-2.33,4.4
10.532411098480225,2.67,3.21,-2.14,4.69
10.559895992279053,2.68,3.79,-1.69,4.93
10.561519145965576,2.62,4.82,-1.23,5.62
10.5625638961792,2.62,6.21,-0.79,6.78
10.568087100982666,2.81,7.79,0.04,8.28
10.578208923339844,3.66,8.35,0.87,9.15
10.588737964630127,4.57,8.56,1.78,9.86
10.598536014556885,4.82,8.01,2.83,9.76
10.608948230743408,4.37,6.27,3.08,8.23
10.619028091430664,3.51,3.91,2.04,5.63
10.629765033721924,4.05,2.43,-1.17,4.86
10.666574954986572,7.83,1.75,-3.0,8.56
10.668272972106934,11.9,0.97,-0.84,11.96
10.669435024261475,12.72,0.21,-0.29,12.72
10.686688899993896,11.5,0.56,-3.01,11.9
10.688451051712036,11.21,0.55,-4.7,12.16
10.70047402381897,13.86,-0.15,-4.81,14.67
10.702250003814697,15.1,0.49,-4.54,15.77
10.716369152069092,13.33,3.17,-6.57,15.19
10.719513893127441,6.94,3.93,-12.4,14.74
10.733014106750488,-7.85,7.89,-2.54,11.41
10.759679079055786,-15.19,15.8,3.7,22.22
10.761243104934692,-7.68,11.81,-0.23,14.08
10.76242208480835,2.38,5.46,1.05,6.04
10.76924204826355,5.52,7.63,2.69,9.79
10.779295921325684,9.06,4.39,2.84,10.46
10.789460182189941,12.91,-1.39,-1.67,13.09
10.800286054611206,10.97,-4.18,2.19,11.94
10.810451984405518,3.74,-4.36,6.89,8.97
10.82057809829712,0.71,-2.92,5.93,6.64
10.830737113952637,0.2,0.27,-3.0,3.01
10.864979028701782,1.22,2.61,-7.17,7.72
10.866549015045166,2.97,2.19,-3.13,4.83
10.867691993713379,2.94,0.79,-1.19,3.26
10.88688611984253,1.49,-0.36,-1.19,1.94
10.888419151306152,0.26,-0.98,0.63,1.19
10.902074098587036,-0.86,-0.79,2.34,2.61
10.9043710231781,-1.63,-0.17,2.28,2.8
10.91588807106018,-1.62,0.22,1.2,2.02
10.920709133148193,-1.29,0.26,0.21,1.33
10.933414936065674,-0.81,0.3,-0.41,0.95
10.96670913696289,-0.39,0.13,-0.73,0.83
10.968245029449463,-0.33,0.0,-0.83,0.89
10.969385147094727,-0.58,0.13,-0.05,0.59
10.987389087677002,-1.54,0.31,0.27,1.59
10.988527059555054,-2.5,0.63,0.64,2.65
11.000172138214111,-2.54,0.37,0.99,2.75
11.001924991607666,-1.53,0.07,0.58,1.63
11.016217231750488,-0.24,0.2,0.14,0.34
11.021337032318115,0.4,0.24,-0.25,0.52
11.03372311592102,0.84,0.12,-0.65,1.06
11.063382148742676,1.49,0.01,-0.38,1.53
11.064926147460938,1.53,-0.08,0.11,1.53
11.065969944000244,0.89,-0.07,0.23,0.92
11.087784051895142,0.27,0.13,0.45,0.54
11.089064121246338,-0.18,0.24,0.6,0.67
11.100418090820312,-0.33,0.2,0.49,0.62
11.102318048477173,-0.25,0.05,0.35,0.43
11.115508079528809,-0.14,0.0,0.17,0.22
11.121693134307861,-0.06,-0.11,0.07,0.14
11.13346004486084,-0.03,-0.54,0.35,0.64
11.16414213180542,-0.1,-0.42,0.26,0.5
11.165708065032959,-0.4,0.06,0.32,0.51
11.16687297821045,-0.58,0.33,0.36,0.75
11.185619115829468,-0.29,0.31,-0.05,0.42
11.186804056167603,0.12,0.22,-0.25,0.35
11.200788021087646,0.36,0.12,-0.43,0.57
11.202620029449463,0.39,0.0,-0.47,0.61
11.2157301902771,0.28,-0.06,-0.27,0.39
11.22274923324585,0.09,-0.04,0.09,0.13
11.233013153076172,-0.05,-0.1,0.26,0.28
11.267503023147583,-0.06,-0.01,0.42,0.42
11.268930912017822,-0.02,-0.15,0.67,0.68
11.270095109939575,-0.17,-0.44,0.77,0.9
11.28730821609497,-0.42,-0.36,0.75,0.93
11.288166046142578,-0.8,0.19,0.16,0.83
11.300612926483154,-1.0,0.75,-0.42,1.31
11.302876949310303,-0.7,0.43,-0.73,1.09
11.315539121627808,-0.03,0.0,-0.88,0.88
11.323158025741577,0.28,0.01,-0.79,0.83
11.333651065826416,-0.19,0.26,-0.35,0.47
11.365117073059082,-0.48,0.17,0.16,0.53
11.366696119308472,-0.31,-0.03,0.67,0.73
11.367836952209473,-0.01,-0.16,1.28,1.29
11.387484073638916,0.0,-0.26,1.4,1.42
11.388619899749756,-0.48,-0.02,0.68,0.83
11.40019416809082,-1.03,1.04,-0.01,1.46
11.403285026550293,-1.0,1.21,-0.47,1.63
11.416264057159424,-0.28,0.82,-1.0,1.32
11.42373514175415,0.05,0.69,-1.3,1.47
11.436045169830322,-0.32,0.83,-1.16,1.46
11.466569900512695,-0.71,0.9,-0.67,1.32
11.46815824508667,-0.99,0.92,-0.22,1.36
11.469301223754883,-1.13,0.85,0.24,1.43
11.487436056137085,-1.17,0.86,0.45,1.52
11.488576889038086,-1.22,0.87,0.38,1.54
11.500659942626953,-1.22,0.84,0.09,1.48
11.503911018371582,-1.16,0.89,-0.2,1.47
11.516727924346924,-1.03,0.75,-0.22,1.29
11.524687051773071,-0.99,0.63,-0.09,1.17
11.535000085830688,-1.15,0.79,0.22,1.41
11.569406032562256,-1.65,1.12,0.39,2.03
11.570985078811646,-2.21,1.46,0.5,2.69
11.572120189666748,-2.66,1.73,0.53,3.21
11.587940216064453,-3.17,1.98,0.49,3.76
11.58909797668457,-3.89,2.44,0.35,4.6
11.601540088653564,-4.64,3.1,0.08,5.58
11.604802131652832,-5.24,3.65,-0.04,6.38
11.616659164428711,-5.92,4.05,-0.44,7.18
11.624895095825195,-6.72,4.46,-0.8,8.1
11.635344982147217,-7.36,4.82,-0.89,8.84
11.667387962341309,-7.56,5.59,-0.25,9.4
11.668962955474854,-8.76,6.31,1.11,10.85
11.670104026794434,-12.12,6.77,1.83,14.0
11.687464237213135,-10.94,6.39,2.47,12.9
11.68833303451538,-6.45,5.83,2.86,9.15
11.701819896697998,-2.98,6.42,1.44,7.22
11.7049560546875,0.31,7.72,1.19,7.81
11.717060089111328,1.73,6.98,2.71,7.68
11.725977897644043,-1.87,5.43,5.14,7.7
11.735881090164185,-6.29,4.52,5.15,9.3
11.769859075546265,-7.25,3.19,4.42,9.07
11.771337032318115,-6.0,0.99,4.0,7.27
11.772465229034424,-4.83,-0.9,3.89,6.26
11.787559986114502,-3.48,-2.25,2.84,5.02
11.788678169250488,-0.99,-3.16,1.94,3.83
11.802142143249512,2.48,-2.24,1.66,3.73
11.80566120147705,6.39,-3.5,0.62,7.31
11.817215919494629,2.59,-4.38,2.76,5.78
11.826146125793457,-4.42,-4.53,3.43,7.19
11.836668968200684,-8.45,-5.9,3.21,10.79
11.872903108596802,-10.48,-7.45,2.65,13.12
11.874512195587158,-11.37,-7.31,1.18,13.56
11.875691890716553,-10.21,-5.2,-0.03,11.45
11.885530948638916,-6.8,-3.67,-0.56,7.74
11.886667013168335,-4.99,-2.75,-0.77,5.74
11.901647090911865,-4.06,-2.5,-0.79,4.83
11.906276226043701,-3.46,-2.62,-0.71,4.39
11.91635012626648,-3.07,-2.53,-0.53,4.01
11.926870107650757,-2.45,-2.08,-0.42,3.24
11.937546014785767,-1.7,-1.26,-0.2,2.12
11.969727993011475,-1.09,-0.18,0.13,1.11
11.97126817703247,-0.69,0.75,0.29,1.05
11.972405910491943,-0.6,1.39,0.2,1.52
11.987548112869263,-0.56,1.99,0.07,2.06
11.988685131072998,-0.01,2.62,-0.19,2.62
12.001605033874512,0.98,3.24,-0.58,3.43
12.00689697265625,1.97,3.62,-0.95,4.22
12.017563104629517,2.66,4.24,-0.97,5.09
12.027338027954102,3.07,4.56,-0.94,5.57
12.037784099578857,3.28,5.02,-0.75,6.04
12.071659088134766,3.68,5.57,-0.43,6.68
12.073184967041016,4.7,6.5,0.0,8.02
12.074350118637085,5.9,6.97,-0.09,9.13
12.08724308013916,6.69,6.62,-0.26,9.41
12.0884530544281,6.18,5.65,0.08,8.37
12.10061001777649,5.22,4.82,0.9,7.16
12.10807204246521,4.73,4.0,1.68,6.41
12.117620944976807,4.51,2.73,1.29,5.42
12.128050088882446,4.97,1.95,-0.61,5.37
12.138211011886597,7.07,1.72,-1.82,7.5
12.175700187683105,10.22,1.1,-0.32,10.28
12.177287101745605,11.86,-0.1,-0.33,11.86
12.178431034088135,12.15,-0.47,-2.37,12.38
12.184800148010254,12.04,-0.85,-4.66,12.93
12.188051223754883,11.79,-0.34,-7.36,13.9
12.201564073562622,7.37,5.02,-7.56,11.69
12.208219051361084,1.13,7.86,-9.92,12.7
12.21883511543274,-11.0,11.34,0.44,15.8
12.229320049285889,-14.09,15.84,1.55,21.25
12.23934006690979,1.1,7.52,-0.05,7.6
12.272440910339355,8.83,1.68,5.16,10.36
12.274031162261963,10.66,2.63,3.14,11.41
12.275172233581543,12.86,1.21,2.34,13.12
12.28691291809082,11.3,-2.79,2.02,11.81
12.288312911987305,3.83,-2.49,2.4,5.16
12.302175998687744,-1.03,-1.02,4.5,4.72
12.308643102645874,-2.98,-0.36,2.82,4.11
12.319453239440918,-2.14,0.65,-3.11,3.83
12.329270124435425,1.28,1.89,-6.3,6.7
12.33954405784607,4.0,1.65,-4.31,6.1
12.373751163482666,3.7,1.32,-4.36,5.86
12.375322103500366,1.66,1.03,-3.45,3.96
12.376437187194824,-0.69,0.21,0.01,0.72
12.385550022125244,-2.11,-0.2,1.63,2.67
12.388895034790039,-1.89,-0.47,2.36,3.05
12.402390003204346,-0.51,-0.45,1.95,2.06
12.409294128417969,1.27,-0.19,0.44,1.35
12.419816970825195,2.3,0.01,-0.65,2.39
12.430107116699219,2.41,0.08,-1.14,2.66
12.440502166748047,2.12,-0.08,-0.97,2.33
12.476486206054688,1.64,-0.22,-0.41,1.7
12.478048086166382,0.81,-0.18,0.23,0.86
12.479228019714355,-0.18,0.03,0.67,0.69
12.485182046890259,-0.85,0.17,0.61,1.05
12.489530086517334,-0.68,0.11,0.31,0.75
12.50164008140564,0.11,-0.12,0.28,0.32
12.50984001159668,0.67,-0.36,0.11,0.76
12.520193099975586,0.64,-0.32,0.11,0.72
12.530879974365234,0.45,-0.23,0.4,0.64
12.540663242340088,0.03,-0.11,0.34,0.35
12.575693130493164,-0.63,-0.13,0.54,0.83
12.577250957489014,-1.12,-0.23,0.44,1.22
12.578400135040283,-1.06,-0.13,0.25,1.09
12.585215091705322,-0.73,0.17,-0.3,0.8
12.590066909790039,-0.44,0.47,-0.23,0.68
12.601335048675537,-0.42,0.36,0.39,0.67
12.610963106155396,-0.62,0.08,0.79,1.0
12.620569229125977,-0.83,-0.04,1.26,1.5
12.631324052810669,-0.82,0.12,1.43,1.65
12.641374111175537,-0.58,0.24,1.22,1.37
12.67357611656189,-0.58,0.2,0.78,0.99
12.675124168395996,-0.54,0.06,0.11,0.55
12.676271915435791,-0.12,0.04,-0.46,0.47
12.685262203216553,0.35,0.08,-0.8,0.87
12.690968990325928,0.45,0.15,-0.78,0.91
12.701436996459961,0.31,0.1,-0.25,0.41
12.711250066757202,0.03,0.13,0.08,0.15
12.721376895904541,-0.12,0.2,0.26,0.34
12.732245922088623,-0.25,0.24,0.31,0.46
12.742003917694092,-0.34,0.21,0.13,0.42
12.776726245880127,-0.24,0.19,0.09,0.31
12.778289079666138,-0.16,0.22,0.26,0.37
12.779400110244751,-0.26,0.19,0.33,0.46
12.785321235656738,-0.36,0.29,0.3,0.55
12.791270017623901,-0.42,0.34,0.21,0.57
12.80157208442688,-0.35,0.32,0.11,0.48
12.81183409690857,-0.18,0.4,0.17,0.47
12.822370052337646,-0.15,0.46,0.1,0.49
12.832640171051025,-0.34,0.47,0.03,0.58
12.842665195465088,-0.47,0.51,0.11,0.7
12.878230094909668,-0.58,0.54,0.04,0.79
12.87983512878418,-0.57,0.51,-0.11,0.77
12.880994081497192,-0.45,0.52,-0.14,0.7
12.885462045669556,-0.46,0.46,-0.19,0.67
12.90065622329712,-0.41,0.36,-0.09,0.55
12.902170181274414,-0.38,0.5,0.26,0.67
12.916404008865356,-0.62,0.69,0.55,1.07
12.922791004180908,-0.88,0.76,0.54,1.28
12.93415904045105,-0.97,0.78,0.54,1.35
12.94369912147522,-1.03,0.8,0.4,1.36
12.978082180023193,-0.99,0.8,0.17,1.28
12.979383945465088,-0.9,0.82,-0.07,1.21
12.980524063110352,-0.92,0.9,-0.03,1.28
12.98558521270752,-0.97,1.02,0.16,1.41
12.992789030075073,-1.04,1.28,0.31,1.67
13.00267505645752,-1.27,1.35,0.5,1.91
13.013130187988281,-1.54,1.45,0.44,2.16
13.023058891296387,-1.76,1.46,0.46,2.33
13.033717155456543,-1.93,1.5,0.2,2.45
13.0436692237854,-2.05,1.57,0.08,2.58
13.078141212463379,-2.34,1.81,-0.1,2.96
13.079682111740112,-2.74,2.21,-0.14,3.52
13.081645965576172,-3.34,2.66,-0.08,4.27
13.086003065109253,-4.14,3.15,-0.07,5.2
13.101231098175049,-5.03,3.67,0.06,6.22
13.103234052658081,-5.88,4.36,0.14,7.32
13.11615514755249,-6.74,5.39,0.37,8.63
13.123640060424805,-7.75,6.44,0.84,10.11
13.133872985839844,-9.1,7.18,1.18,11.65
13.144201040267944,-10.42,7.82,1.26,13.08
13.177181243896484,-10.68,7.85,1.3,13.31
13.17857313156128,-8.72,7.29,1.4,11.45
13.17973518371582,-6.23,7.11,2.09,9.68
13.185863018035889,-3.4,7.33,2.44,8.44
13.193825244903564,-1.17,6.07,3.34,7.02
13.204099178314209,-1.61,4.39,2.41,5.26
13.214212894439697,-4.3,3.09,1.54,5.51
13.224145889282227,-6.42,2.14,1.5,6.93
13.234713077545166,-5.61,1.04,1.41,5.87
13.24518609046936,-3.34,-0.77,0.75,3.5
13.279864072799683,-1.64,-2.86,1.61,3.66
13.281448125839233,-0.47,-3.74,2.28,4.4
13.282594203948975,0.75,-4.53,1.59,4.85
13.286181926727295,-1.44,-4.83,1.07,5.15
13.294322967529297,-5.28,-4.49,0.5,6.94
13.304641008377075,-7.92,-4.34,-0.22,9.03
13.314517974853516,-9.15,-4.27,-0.93,10.14
13.325237035751343,-8.51,-3.92,-1.24,9.45
13.335398197174072,-6.68,-3.48,-1.23,7.63
13.345272064208984,-5.48,-3.02,-1.19,6.36
13.37820291519165,-4.7,-2.62,-0.99,5.47
13.379793167114258,-3.98,-2.49,-0.74,4.75
13.380970001220703,-3.6,-2.6,-0.86,4.52
13.385838031768799,-3.65,-2.76,-1.05,4.69
13.4010329246521,-4.03,-2.83,-1.38,5.11
13.405293941497803,-4.32,-2.43,-1.67,5.23
13.41678524017334,-4.24,-1.8,-1.47,4.83
13.425389051437378,-4.02,-1.1,-0.89,4.26
13.435853958129883,-3.79,-0.42,-0.46,3.84
13.44654893875122,-3.64,0.27,-0.29,3.66
13.480719089508057,-3.38,1.01,-0.4,3.55
13.482067108154297,-2.6,1.66,-0.74,3.17
13.483206033706665,-1.33,2.27,-1.33,2.94
13.485730171203613,-0.19,2.86,-1.95,3.46
13.495750904083252,0.49,3.39,-2.33,4.14
13.505865097045898,0.79,3.95,-2.33,4.65
13.515880107879639,0.99,4.65,-2.1,5.19
13.526227951049805,1.29,5.26,-1.75,5.69
13.536514043807983,1.61,5.74,-1.26,6.09
13.546760082244873,2.12,6.44,-0.66,6.81
13.58028507232666,3.48,7.38,-0.27,8.16
13.581833124160767,5.31,8.0,0.37,9.6
13.58298110961914,6.89,7.46,1.0,10.2
13.586088180541992,7.55,5.51,1.19,9.42
13.596333980560303,6.6,3.61,1.27,7.62
13.60657024383545,5.41,2.23,-0.32,5.86
13.617012023925781,5.86,1.54,-1.85,6.33
13.626677989959717,7.89,1.04,-1.18,8.04
13.63693904876709,9.53,1.15,-0.36,9.6
13.6476469039917,10.59,2.01,-1.53,10.88
13.682631969451904,13.76,0.27,-3.34,14.16
13.684237003326416,15.5,0.51,-2.48,15.7
13.685348987579346,14.05,1.95,-1.61,14.27
13.705366134643555,11.39,5.95,-3.65,13.35
13.706566095352173,7.15,7.58,-9.19,13.89
13.718531131744385,-6.7,12.4,1.0,14.12
13.7202730178833,-11.09,19.71,3.85,22.94
13.73496389389038,0.08,9.38,0.85,9.41
13.73762321472168,6.17,-0.03,0.88,6.23
13.751127243041992,6.09,-0.49,-2.37,6.55
13.777228116989136,5.24,0.18,-0.56,5.27
13.778815031051636,6.47,-0.33,5.79,8.68
13.779963970184326,8.96,-1.1,5.06,10.34
13.787776947021484,7.55,0.18,0.45,7.56
13.797437191009521,3.26,-0.28,-0.6,3.32
13.807590007781982,1.05,-0.45,-0.75,1.36
13.817915916442871,0.49,0.26,-2.59,2.64
13.828186988830566,1.06,1.0,-2.35,2.76
13.838360071182251,1.67,1.06,-1.89,2.73
13.848790168762207,1.58,0.7,-1.72,2.43
13.883746147155762,1.27,-0.1,0.07,1.27
13.885303020477295,0.96,-0.8,1.36,1.84
13.886441230773926,0.44,-0.78,1.51,1.75
13.903813123703003,-0.05,-0.27,0.98,1.01
13.904982089996338,-0.26,0.21,0.05,0.33
13.918684005737305,-0.13,0.37,-0.63,0.74
13.920462131500244,0.66,0.21,-0.55,0.88
13.934304237365723,1.51,-0.16,-0.32,1.55
13.938852071762085,1.09,-0.31,-0.02,1.13
13.95129919052124,-0.19,-0.17,0.51,0.57
13.984464168548584,-1.14,0.12,0.68,1.33
13.986037015914917,-1.58,0.19,0.49,1.66
13.987153053283691,-1.46,0.26,0.13,1.48
14.00534200668335,-0.87,0.18,0.09,0.89
14.006525993347168,-0.28,-0.08,0.13,0.31
14.018049240112305,0.08,-0.31,0.1,0.33
14.019821166992188,0.29,-0.36,0.33,0.56
14.033971071243286,0.29,-0.19,0.37,0.5
14.039799213409424,0.13,0.15,0.29,0.35
14.051753997802734,-0.06,0.43,0.25,0.5
14.087120056152344,-0.23,0.34,0.07,0.41
14.088748931884766,-0.29,0.13,0.0,0.31
14.089847087860107,-0.27,-0.09,0.02,0.28
14.105245113372803,-0.37,0.12,0.14,0.41
14.106414079666138,-0.7,0.35,0.64,1.01
14.118381977081299,-1.33,0.37,0.9,1.64
14.120201110839844,-1.64,0.34,0.79,1.85
14.133780002593994,-1.28,0.21,0.64,1.44
14.139918088912964,-0.61,0.2,0.4,0.75
14.151767015457153,-0.17,0.38,0.11,0.43
14.183809041976929,-0.08,0.41,0.06,0.42
14.185401916503906,-0.26,0.16,-0.07,0.31
14.186541080474854,-0.27,-0.02,0.0,0.27
14.205337047576904,-0.03,-0.07,-0.1,0.12
14.206537008285522,0.07,-0.15,-0.2,0.25
14.218740940093994,-0.02,-0.13,-0.02,0.13
14.220550060272217,-0.27,0.12,0.22,0.36
14.233644962310791,-0.51,0.28,0.1,0.59
14.240592002868652,-0.48,0.22,0.08,0.53
14.251336097717285,-0.13,0.03,0.16,0.2
14.286379098892212,0.1,0.06,0.03,0.12
14.287947177886963,0.02,0.14,-0.09,0.16
14.289099216461182,-0.08,0.19,-0.13,0.24
14.305676937103271,-0.14,0.35,-0.07,0.38
14.306832075119019,-0.38,0.56,0.16,0.69
14.318068027496338,-0.77,0.54,0.41,1.02
14.320844173431396,-1.07,0.47,0.47,1.25
14.334252119064331,-1.18,0.42,0.49,1.34
14.341241121292114,-1.25,0.45,0.46,1.4
14.351787090301514,-1.19,0.42,0.29,1.29
14.387815952301025,-0.99,0.4,0.18,1.08
14.389386177062988,-0.69,0.36,0.02,0.77
14.390583038330078,-0.44,0.41,0.07,0.6
14.405625104904175,-0.38,0.55,0.24,0.71
14.406785011291504,-0.42,0.74,0.21,0.87
14.4184410572052,-0.49,0.84,0.09,0.97
14.421940088272095,-0.46,0.83,0.03,0.94
14.433835983276367,-0.33,0.78,-0.16,0.86
14.441816091537476,-0.21,0.76,-0.3,0.84
14.45206594467163,-0.18,0.66,-0.39,0.78
14.486342906951904,-0.17,0.6,-0.5,0.79
14.487880229949951,-0.21,0.57,-0.49,0.78
14.489047050476074,-0.35,0.56,-0.38,0.76
14.50578498840332,-0.65,0.49,-0.19,0.83
14.50693416595459,-0.86,0.56,-0.13,1.03
14.518526077270508,-1.04,0.64,-0.07,1.22
14.521965026855469,-1.27,0.8,-0.03,1.5
14.53400206565857,-1.58,1.04,0.13,1.89
14.542778015136719,-1.98,1.35,0.16,2.4
14.552922010421753,-2.41,1.65,0.28,2.93
14.587695121765137,-2.69,1.75,0.28,3.22
14.589250087738037,-2.96,2.01,0.24,3.58
14.590373992919922,-3.39,2.26,0.13,4.07
14.592134952545166,-3.86,2.51,0.0,4.6
14.602905035018921,-4.37,3.02,-0.1,5.31
14.612540245056152,-5.0,3.61,-0.08,6.16
14.622596025466919,-5.88,4.17,0.18,7.21
14.633181095123291,-7.14,4.87,0.52,8.65
14.642667055130005,-8.52,5.7,0.95,10.29
14.653459072113037,-9.39,6.38,1.39,11.43
14.685471057891846,-9.98,6.85,1.68,12.22
14.686816215515137,-10.11,7.24,1.49,12.52
14.687926054000854,-8.76,7.26,1.19,11.43
14.705199241638184,-6.28,7.76,1.02,10.03
14.706382036209106,-1.6,8.65,0.74,8.82
14.718683242797852,2.22,6.72,3.21,7.77
14.723249912261963,0.65,4.58,4.35,6.34
14.735276222229004,-3.28,3.91,3.06,5.95
14.743689060211182,-5.35,2.16,2.91,6.46
14.75438404083252,-5.5,-0.41,2.9,6.23
14.787814140319824,-5.26,-1.83,2.18,5.98
14.789348125457764,-4.47,-2.44,2.01,5.47
14.790491104125977,-2.61,-2.5,3.2,4.82
14.805721044540405,1.53,-2.18,1.18,2.91
14.80686616897583,7.0,-4.15,-0.01,8.13
14.819602966308594,4.99,-5.11,1.68,7.33
14.823859214782715,-2.85,-4.38,2.02,5.6
14.834435939788818,-7.0,-5.26,1.41,8.86
14.844672203063965,-9.35,-6.21,0.59,11.23
14.854904174804688,-10.86,-5.77,-0.26,12.3
14.888928890228271,-9.64,-4.44,-0.79,10.64
14.890504121780396,-5.55,-3.87,-0.92,6.82
14.891643047332764,-3.58,-3.32,-1.01,4.98
14.905824184417725,-2.78,-3.0,-1.08,4.23
14.906968116760254,-2.7,-3.07,-1.0,4.2
14.919563055038452,-3.29,-3.14,-0.88,4.63
14.92477798461914,-3.72,-2.95,-0.67,4.79
14.935312032699585,-3.88,-2.51,-0.77,4.68
14.944875240325928,-3.78,-1.68,-0.9,4.23
14.955270051956177,-3.22,-0.82,-0.55,3.36
14.990593910217285,-2.46,-0.11,0.06,2.46
14.992146015167236,-1.88,0.61,0.45,2.02
14.993297100067139,-1.4,1.36,0.61,2.04
15.005116939544678,-0.7,2.15,0.42,2.29
15.006249904632568,0.43,2.77,0.02,2.8
15.019795894622803,1.59,3.28,-0.47,3.67
15.024976015090942,2.39,3.73,-0.85,4.51
15.035068988800049,2.69,4.31,-0.79,5.14
15.045829057693481,2.57,4.71,-0.48,5.38
15.056159019470215,2.34,5.1,-0.1,5.61
15.094489097595215,2.19,6.18,0.46,6.57
15.096132040023804,2.39,6.82,0.68,7.25
15.097236156463623,3.06,7.14,1.25,7.86
15.099050998687744,3.92,6.97,1.97,8.23
15.105770111083984,4.84,6.18,2.71,8.3
15.118721008300781,5.55,5.33,2.71,8.15
15.125466108322144,5.28,4.63,2.17,7.35
15.135378122329712,4.45,3.21,1.35,5.65
15.14594316482544,5.0,2.11,-0.32,5.43
15.156020164489746,7.9,1.6,-1.72,8.24
15.188175201416016,11.18,1.11,-2.1,11.42
15.189754962921143,13.27,0.64,-2.55,13.52
15.190967082977295,13.97,0.61,-3.97,14.53
15.204943180084229,13.7,1.34,-4.93,14.62
15.206164121627808,14.18,1.25,-4.13,14.82
15.21941614151001,13.18,1.5,-4.3,13.94
15.226129055023193,8.55,3.46,-4.95,10.46
15.236270904541016,-0.47,1.88,-6.37,6.65
15.246277093887329,-12.45,6.36,-0.26,13.98
15.256895065307617,-15.21,13.34,-0.08,20.23
15.290807008743286,-5.33,7.03,-0.77,8.85
15.292376041412354,2.12,4.52,1.05,5.1
15.293506145477295,5.71,9.31,7.15,13.05
15.303855895996094,11.31,4.47,3.47,12.64
15.306416988372803,17.08,1.71,-9.1,19.42
15.319806098937988,10.79,-2.8,-1.5,11.24
15.32650089263916,-0.85,-2.48,4.76,5.43
15.337162971496582,-4.38,-1.86,6.3,7.89
15.347630023956299,-6.1,-0.3,-1.25,6.23
15.358141899108887,-3.35,2.2,-6.21,7.39
15.392179012298584,2.19,0.63,0.82,2.42
15.393778085708618,3.23,-1.04,2.49,4.2
15.394904136657715,1.57,-1.51,0.78,2.31
15.403510093688965,-0.38,-1.08,0.8,1.39
15.406974077224731,-1.19,0.01,0.98,1.54
15.419114112854004,-0.97,0.47,0.35,1.13
15.42758321762085,-0.41,0.2,-0.75,0.87
15.437459945678711,0.21,-0.16,-0.8,0.84
15.448261022567749,0.58,-0.21,-0.51,0.8
15.458701133728027,0.64,-0.11,-0.41,0.76
15.496001243591309,0.23,-0.07,-0.03,0.24
15.497606039047241,-0.14,0.09,0.35,0.38
15.498895168304443,-0.27,0.04,0.53,0.59
15.505277156829834,-0.22,0.06,0.3,0.37
15.519443035125732,0.15,0.05,-0.08,0.17
15.520620107650757,0.67,0.03,-0.51,0.84
15.534318923950195,0.95,0.01,-0.58,1.11
15.538108110427856,0.98,0.04,-0.29,1.02
15.551607131958008,0.71,-0.01,0.16,0.72
15.55862307548523,0.31,-0.09,0.46,0.56
15.59226107597351,0.19,-0.09,0.64,0.67
15.593584060668945,0.36,-0.14,0.63,0.73
15.594653129577637,0.49,-0.14,0.63,0.81
15.603568077087402,0.23,-0.04,0.54,0.58
15.608325004577637,-0.23,0.04,0.43,0.48
15.618760108947754,-0.64,0.05,0.05,0.64
15.628763198852539,-0.75,0.05,-0.07,0.75
15.638562202453613,-0.42,0.05,0.14,0.44
15.649571895599365,-0.13,-0.01,0.25,0.28
15.659273147583008,0.02,0.0,0.5,0.5
15.694148063659668,-0.04,0.01,0.47,0.47
15.695635080337524,-0.32,0.01,0.47,0.56
15.696656227111816,-0.44,0.18,0.23,0.52
15.703198909759521,-0.49,0.27,0.09,0.56
15.708812236785889,-0.53,0.31,0.0,0.61
15.718966007232666,-0.51,0.29,-0.04,0.58
15.729108095169067,-0.46,0.27,0.08,0.53
15.739275932312012,-0.51,0.22,0.04,0.55
15.750456094741821,-0.59,0.24,0.15,0.65
15.759652137756348,-0.54,0.24,0.37,0.69
15.79259705543518,-0.55,0.14,0.59,0.81
15.794181108474731,-0.68,0.03,0.66,0.94
15.795330047607422,-0.57,0.02,0.19,0.6
15.804402112960815,-0.4,0.14,-0.16,0.45
15.809777021408081,-0.29,0.22,-0.28,0.45
15.819679021835327,-0.29,0.29,-0.29,0.5
15.83020305633545,-0.33,0.37,-0.22,0.54
15.840063095092773,-0.32,0.42,-0.28,0.59
15.850719928741455,-0.28,0.48,-0.32,0.64
15.860783100128174,-0.29,0.44,-0.19,0.56
15.896066188812256,-0.15,0.44,-0.32,0.56
15.897473096847534,0.04,0.56,-0.23,0.6
15.898675918579102,-0.1,0.6,-0.11,0.61
15.903278112411499,-0.32,0.65,-0.14,0.73
15.910385131835938,-0.31,0.67,-0.1,0.74
15.920177936553955,-0.24,0.64,0.16,0.7
15.931004047393799,-0.35,0.68,0.44,0.88
15.941140174865723,-0.68,0.74,0.52,1.13
15.951076030731201,-0.92,0.85,0.53,1.36
15.96131706237793,-0.97,0.91,0.5,1.42
15.997652053833008,-1.03,0.92,0.34,1.42
15.999173164367676,-1.12,0.97,0.29,1.5
16.000376224517822,-1.24,1.02,0.41,1.65
16.004026889801025,-1.41,1.04,0.37,1.79
16.010572910308838,-1.57,1.1,0.36,1.95
16.02112102508545,-1.69,1.11,0.24,2.03
16.031246185302734,-1.61,0.91,0.1,1.85
16.04109501838684,-1.33,0.68,-0.38,1.54
16.051745891571045,-1.12,0.87,-0.69,1.57
16.062204122543335,-1.28,1.25,-0.6,1.88
16.0975022315979,-1.9,1.63,-0.57,2.56
16.099127054214478,-2.46,1.89,-0.42,3.13
16.100292205810547,-2.9,2.1,-0.33,3.59
16.104022979736328,-3.26,2.45,-0.31,4.08
16.11121416091919,-3.45,3.06,-0.09,4.61
16.121649026870728,-4.07,3.6,0.21,5.43
16.131630897521973,-4.92,4.08,0.33,6.4
16.142033100128174,-6.02,4.71,0.41,7.65
16.151896953582764,-7.42,5.39,0.37,9.17
16.162708044052124,-8.6,5.91,0.21,10.43
16.192687034606934,-8.47,6.41,0.33,10.62
16.194211959838867,-8.82,6.64,0.45,11.04
16.195362091064453,-11.26,7.38,0.51,13.47
16.204142093658447,-10.01,7.98,0.7,12.82
16.21217918395996,-6.82,8.52,0.86,10.94
16.222370147705078,-2.4,8.42,0.96,8.8
16.232470989227295,0.41,6.63,1.73,6.86
16.2429461479187,-1.2,5.62,2.63,6.31
16.252785205841064,-3.9,4.34,2.42,6.31
16.26314401626587,-5.71,2.79,2.13,6.7
16.30028510093689,-6.11,1.43,2.36,6.7
16.301761150360107,-4.78,-0.28,2.55,5.42
16.30294895172119,-2.61,-2.79,3.07,4.9
16.322031021118164,0.07,-3.25,3.91,5.08
16.323829174041748,3.26,-4.06,2.0,5.57
16.33619499206543,0.53,-4.88,1.86,5.24
16.337953090667725,-5.53,-5.2,1.81,7.8
16.352588176727295,-10.02,-5.53,0.69,11.46
16.355501174926758,-12.66,-5.6,-0.44,13.85
16.36861515045166,-12.58,-4.61,-1.58,13.49
16.39643907546997,-7.71,-4.27,-2.29,9.1
16.398012161254883,-3.95,-3.95,-2.87,6.28
16.399209022521973,-2.65,-3.4,-3.06,5.28
16.403980016708374,-2.13,-3.26,-2.55,4.65
16.41913104057312,-2.08,-3.33,-2.0,4.4
16.42317295074463,-2.38,-3.38,-2.0,4.59
16.434389114379883,-2.73,-3.17,-2.23,4.74
16.443603038787842,-3.05,-2.77,-1.98,4.57
16.454008102416992,-3.43,-2.28,-1.11,4.26
16.46438217163086,-3.64,-1.63,-0.34,4.0
16.497502088546753,-3.59,-0.7,0.1,3.65
16.49890899658203,-3.12,0.34,0.24,3.14
16.500051021575928,-2.07,1.4,0.02,2.49
16.503971099853516,-0.51,2.42,-0.48,2.51
16.521617889404297,1.03,3.55,-1.14,3.86
16.523755073547363,2.25,4.76,-1.47,5.46
16.535377025604248,3.36,6.01,-1.27,7.0
16.54442024230957,4.43,6.89,-0.72,8.22
16.554829120635986,5.39,7.94,0.11,9.59
16.565062999725342,6.15,9.17,0.65,11.06
16.59898614883423,6.31,10.11,1.72,12.04
16.60038709640503,6.74,7.8,3.82,10.99
16.601502895355225,7.14,5.7,3.94,9.94
16.60433006286621,7.47,4.77,2.42,9.18
16.614557027816772,8.88,4.03,-1.04,9.8
16.624650955200195,11.31,2.38,-1.73,11.68
16.63477897644043,14.71,0.8,-1.15,14.77
16.64492106437683,15.75,0.65,-0.82,15.78
16.654946088790894,13.64,-0.15,-0.57,13.65
16.665500164031982,11.26,1.27,-2.1,11.52
16.700239181518555,10.97,2.7,-4.98,12.34
16.701817989349365,7.03,2.71,-12.1,14.25
16.7029709815979,-6.33,14.1,-0.87,15.48
16.723254203796387,-9.51,25.14,19.64,33.28
16.724616050720215,6.82,13.12,9.35,17.49
16.736258029937744,16.09,5.12,-19.53,25.81
16.738121032714844,5.81,-3.5,-16.27,17.62
16.7521390914917,-2.64,-2.27,-2.69,4.39
16.755417108535767,-1.7,-3.34,9.68,10.38
16.768959999084473,-1.51,-4.2,12.68,13.44
16.798144102096558,-0.13,-1.59,0.1,1.59
16.79973316192627,4.83,-0.66,-6.06,7.77
16.800888061523438,9.39,-1.16,0.03,9.46
16.805861949920654,8.95,-0.15,2.77,9.37
16.815689086914062,3.03,0.92,0.0,3.16
16.82563018798828,-1.96,0.88,-3.09,3.76
16.83577823638916,-3.5,1.05,-3.84,5.3
16.846182107925415,-1.28,1.01,-1.45,2.18
16.856438159942627,1.34,0.09,0.64,1.48
16.86703610420227,1.42,-0.93,1.41,2.2
16.900984048843384,-0.13,-1.35,2.3,2.67
16.902575969696045,-1.43,-0.99,2.78,3.27
16.90372610092163,-1.92,-0.38,1.58,2.51
16.922993183135986,-1.73,0.09,0.09,1.73
16.923866033554077,-1.2,0.13,-0.24,1.23
16.936673164367676,-1.19,0.01,-0.09,1.19
16.938395977020264,-1.62,0.26,0.05,1.64
16.952551126480103,-1.89,0.42,0.25,1.95
16.956686973571777,-1.89,0.37,0.23,1.93
16.9691801071167,-1.36,0.18,0.57,1.48
17.000832080841064,-0.49,-0.05,0.7,0.85
17.002401113510132,0.35,-0.07,0.35,0.49
17.00361204147339,1.11,-0.06,0.11,1.11
17.02358388900757,1.5,-0.01,-0.26,1.52
17.024816036224365,1.56,0.15,-0.19,1.57
17.036959171295166,1.3,0.15,0.11,1.31
17.03862714767456,0.6,0.17,0.38,0.73
17.05251908302307,-0.13,0.26,0.54,0.61
17.057732105255127,-0.55,0.36,0.32,0.73
17.070208072662354,-0.53,0.42,-0.11,0.68
17.102571964263916,-0.47,0.32,0.01,0.56
17.104242086410522,-0.69,0.26,0.08,0.74
17.105409145355225,-0.91,0.21,0.09,0.93
17.123616218566895,-0.87,0.18,-0.08,0.89
17.124791145324707,-0.65,0.15,-0.23,0.7
17.1378390789032,-0.37,0.17,-0.23,0.46
17.139419078826904,-0.16,0.22,0.04,0.27
17.151665210723877,-0.05,0.23,0.09,0.25
17.157790184020996,0.13,0.19,0.02,0.23
17.169652938842773,0.24,0.07,-0.18,0.3
17.201584100723267,0.18,0.22,-0.15,0.32
17.203157901763916,0.09,0.36,0.17,0.4
17.20430302619934,-0.18,0.3,0.37,0.5
17.223076105117798,-0.32,0.3,0.43,0.61
17.224173069000244,-0.27,0.31,0.46,0.61
17.236445903778076,-0.2,0.39,0.52,0.68
17.238389015197754,-0.31,0.45,0.65,0.84
17.252420902252197,-0.5,0.4,0.57,0.85
17.25898504257202,-0.62,0.43,0.31,0.81
17.269125938415527,-0.64,0.41,0.26,0.8
17.30430793762207,-0.63,0.34,0.05,0.71
17.305892944335938,-0.65,0.31,-0.01,0.72
17.30702805519104,-0.71,0.37,0.03,0.8
17.323461055755615,-0.83,0.41,0.13,0.93
17.324281215667725,-0.88,0.41,0.22,0.99
17.336467027664185,-0.85,0.39,0.28,0.97
17.338918209075928,-0.68,0.41,0.31,0.85
17.351895093917847,-0.49,0.41,0.17,0.66
17.359255075454712,-0.43,0.44,0.0,0.61
17.36976909637451,-0.44,0.45,-0.14,0.64
17.404744148254395,-0.45,0.47,-0.19,0.67
17.4063138961792,-0.38,0.57,-0.21,0.71
17.407458066940308,-0.4,0.6,-0.25,0.76
17.423920154571533,-0.46,0.61,-0.19,0.78
17.425040245056152,-0.51,0.6,-0.06,0.78
17.43613290786743,-0.7,0.59,0.16,0.92
17.439531087875366,-0.87,0.65,0.47,1.18
17.451934099197388,-1.08,0.72,0.5,1.39
17.460413932800293,-1.21,0.8,0.31,1.48
17.47036600112915,-1.29,1.02,0.24,1.66
17.504054069519043,-1.52,1.31,0.16,2.01
17.505648136138916,-1.89,1.49,0.06,2.4
17.506797075271606,-2.19,1.71,-0.04,2.77
17.524189949035645,-2.47,2.07,-0.03,3.22
17.5253849029541,-2.88,2.42,0.06,3.76
17.540661096572876,-3.43,2.81,0.1,4.43
17.5424861907959,-3.94,3.27,0.24,5.12
17.55322504043579,-4.6,3.74,0.53,5.95
17.560603141784668,-5.69,4.06,0.89,7.04
17.570948123931885,-6.78,4.41,1.13,8.16
17.607134103775024,-6.98,4.95,1.51,8.68
17.608704090118408,-9.3,5.15,1.39,10.72
17.60987615585327,-10.8,5.64,1.18,12.24
17.622512102127075,-8.99,5.17,0.96,10.41
17.623694896697998,-6.75,5.5,0.75,8.73
17.637891054153442,-3.34,6.15,0.06,6.99
17.640735149383545,-0.59,6.21,1.34,6.38
17.652469158172607,-0.08,6.04,2.96,6.72
17.6611590385437,-2.72,6.37,4.07,8.03
17.671715021133423,-5.43,5.74,3.67,8.71
17.70511507987976,-6.1,3.79,3.12,7.82
17.706696033477783,-5.8,2.12,3.28,6.99
17.70784616470337,-5.08,1.42,3.03,6.08
17.724294185638428,-3.56,0.26,2.73,4.49
17.725487232208252,-2.32,-1.37,3.9,4.74
17.737152099609375,-0.5,-1.27,3.72,3.96
17.741333961486816,1.26,-1.87,1.68,2.81
17.75272512435913,-1.66,-2.6,2.64,4.06
17.761950969696045,-5.72,-3.51,2.99,7.34
17.772319078445435,-8.39,-4.76,2.37,9.93
17.80745792388916,-9.99,-5.22,1.19,11.33
17.809048175811768,-10.45,-4.42,0.08,11.34
17.81020498275757,-7.89,-3.25,-0.51,8.54
17.8223819732666,-4.94,-2.36,-0.82,5.53
17.823581218719482,-3.02,-1.93,-1.07,3.74
17.837735176086426,-2.05,-2.13,-0.94,3.1
17.841965198516846,-2.59,-2.57,-0.7,3.71
17.852705001831055,-3.66,-2.8,-0.8,4.67
17.86234402656555,-3.99,-2.66,-0.9,4.87
17.873207092285156,-3.55,-2.25,-0.73,4.26
17.905860900878906,-2.96,-1.63,-0.5,3.41
17.90742301940918,-2.7,-0.89,-0.19,2.84
17.90858006477356,-2.52,-0.26,0.12,2.53
17.923837184906006,-2.29,0.39,0.32,2.34
17.925003051757812,-1.86,1.41,0.41,2.36
17.93683099746704,-1.06,2.78,0.27,2.98
17.942604064941406,-0.07,4.32,0.15,4.32
17.953307151794434,0.94,5.69,0.27,5.77
17.963368892669678,1.89,6.42,0.5,6.71
17.97367811203003,2.51,6.73,0.81,7.22
18.007894039154053,2.81,7.05,1.42,7.72
18.00944423675537,3.02,7.41,2.53,8.39
18.010587215423584,3.99,7.42,3.94,9.3
18.023080110549927,6.01,6.8,4.57,10.16
18.024254083633423,7.82,5.75,3.89,10.45
18.0379741191864,8.67,4.71,2.26,10.12
18.043128967285156,8.96,3.44,0.65,9.61
18.053821086883545,9.72,1.85,-0.55,9.9
18.063817024230957,12.28,0.59,-1.16,12.34
18.07479190826416,15.19,0.22,-1.92,15.31
18.105390071868896,15.5,0.73,-2.9,15.78
18.106976985931396,16.38,-1.21,-3.4,16.77
18.108143091201782,15.73,-2.65,-4.97,16.7
18.113624095916748,13.59,3.89,-8.77,16.63
18.123884201049805,7.49,8.97,-16.3,20.05
18.133620023727417,-11.23,18.69,-0.42,21.8
18.144587993621826,-20.19,26.8,1.16,33.57
18.1541690826416,-8.25,9.32,-2.88,12.77
18.16472291946411,3.84,-0.79,1.41,4.16
18.174447059631348,8.06,-0.47,1.41,8.19
18.207058906555176,11.3,-2.58,6.38,13.23
18.208653926849365,13.13,-5.99,7.39,16.21
18.209801197052002,9.07,-4.9,4.27,11.15
18.223180055618286,3.09,-0.68,-2.77,4.2
18.224356174468994,1.13,1.39,-4.93,5.24
18.237263202667236,1.44,2.14,-3.97,4.73
18.24441623687744,3.3,2.58,-4.19,5.92
18.254845142364502,4.92,1.41,-2.94,5.9
18.265048027038574,3.61,0.06,-1.96,4.1
18.275512218475342,0.72,-0.35,0.07,0.8
18.308407068252563,-1.4,-0.18,1.91,2.37
18.309991121292114,-1.81,-0.05,2.04,2.72
18.311147212982178,-0.85,0.04,0.98,1.29
18.32184410095215,0.92,-0.21,0.24,0.97
18.32450819015503,2.25,-0.64,0.13,2.34
18.337459087371826,2.33,-0.71,0.38,2.46
18.344871997833252,1.07,-0.53,0.62,1.34
18.355313062667847,-0.27,-0.2,0.66,0.74
18.365582942962646,-1.04,0.08,0.65,1.22
18.376029014587402,-1.15,0.09,0.38,1.21
18.40947914123535,-0.49,-0.09,0.24,0.55
18.41105604171753,0.2,-0.2,0.05,0.28
18.41218614578247,0.23,-0.15,-0.26,0.37
18.421353101730347,-0.11,-0.04,-0.12,0.16
18.42514991760254,-0.38,0.05,0.09,0.39
18.43708610534668,-0.49,0.01,0.16,0.51
18.445539951324463,-0.15,-0.18,0.27,0.35
18.455902099609375,0.18,0.1,0.31,0.37
18.466422080993652,-0.12,0.18,0.24,0.32
18.47653102874756,-0.37,0.17,0.13,0.42
18.51292109489441,-0.05,0.25,0.29,0.38
18.514514923095703,0.25,0.15,0.38,0.47
18.5156888961792,0.28,0.08,0.32,0.43
18.52140712738037,-0.11,0.31,0.26,0.41
18.525794982910156,-0.59,0.4,0.21,0.74
18.53728723526001,-0.56,0.36,0.18,0.68
18.54639720916748,-0.3,0.16,0.02,0.34
18.55672001838684,-0.42,0.27,-0.14,0.51
18.56706714630127,-0.6,0.31,-0.04,0.67
18.577227115631104,-0.76,0.21,-0.09,0.79
18.612234115600586,-0.57,0.2,-0.03,0.6
18.613766193389893,-0.35,0.26,0.17,0.46
18.614909172058105,-0.38,0.2,0.26,0.5
18.621784210205078,-0.35,0.13,0.31,0.48
18.626578092575073,-0.22,-0.09,0.37,0.43
18.63707208633423,-0.25,0.04,0.52,0.57
18.647095203399658,-0.42,0.02,0.41,0.58
18.65705108642578,-0.59,0.12,0.36,0.7
18.667745113372803,-0.42,0.07,0.31,0.52
18.678000926971436,-0.39,0.07,0.11,0.41
18.71142816543579,-0.32,0.07,0.13,0.35
18.712927103042603,-0.08,-0.28,0.42,0.51
18.714070081710815,0.01,-0.47,1.04,1.14
18.72148323059082,-0.14,-0.3,1.0,1.05
18.726994037628174,-0.47,0.54,0.58,0.92
18.737104892730713,-0.72,0.7,0.42,1.08
18.74784517288208,-0.42,0.46,-0.2,0.65
18.7576961517334,0.17,0.33,-0.45,0.58
18.767992973327637,0.35,0.27,-0.47,0.64
18.7782940864563,0.29,0.26,-0.18,0.42
18.812724113464355,0.24,0.02,0.45,0.51
18.81428623199463,0.18,-0.1,1.16,1.17
18.815420150756836,-0.32,0.03,1.56,1.59
18.821613073349,-1.38,0.65,1.33,2.02
18.82760000228882,-2.02,1.27,0.63,2.46
18.83777618408203,-1.47,1.23,-0.23,1.93
18.84812307357788,-0.5,1.02,-1.15,1.61
18.8580322265625,-0.12,0.99,-1.42,1.73
18.86909294128418,-0.45,1.01,-1.38,1.76
18.87888193130493,-0.96,0.99,-0.98,1.69
18.91540503501892,-1.27,0.98,-0.52,1.68
18.917012214660645,-1.29,1.03,-0.18,1.66
18.918155193328857,-1.1,1.11,0.03,1.56
18.922046184539795,-0.98,1.02,0.24,1.43
18.92805004119873,-0.99,0.97,0.39,1.43
18.938598155975342,-1.15,1.06,0.52,1.64
18.948812007904053,-1.34,1.24,0.74,1.96
18.958883047103882,-1.61,1.44,1.01,2.38
18.969096183776855,-2.15,1.57,0.96,2.83
18.979608058929443,-2.53,1.85,0.99,3.28
19.01428508758545,-2.78,2.22,1.09,3.72
19.015788078308105,-3.2,2.76,1.05,4.35
19.01697301864624,-3.78,3.25,0.99,5.08
19.02189612388611,-4.51,3.59,1.11,5.87
19.029141902923584,-5.34,3.79,1.07,6.63
19.03906512260437,-6.4,4.17,0.87,7.68
19.049345016479492,-7.5,4.68,0.94,8.89
19.059969902038574,-8.71,5.41,0.83,10.28
19.069977045059204,-9.22,6.05,0.55,11.04
19.080595016479492,-8.75,6.25,0.3,10.75
19.109575033187866,-7.45,6.68,-0.39,10.01
19.11124300956726,-5.5,7.14,0.3,9.01
19.112378120422363,-3.56,7.25,1.56,8.22
19.123432159423828,-2.51,6.95,2.79,7.89
19.12935209274292,-3.6,6.12,3.86,8.08
19.139754056930542,-5.47,5.43,3.27,8.37
19.149921894073486,-5.72,4.13,2.86,7.61
19.160460948944092,-4.88,2.23,2.51,5.92
19.17047691345215,-4.48,0.67,2.6,5.22
19.180685997009277,-4.04,-0.12,2.73,4.87
19.215384006500244,-3.0,-0.97,2.84,4.24
19.21695303916931,-0.46,-1.34,2.22,2.63
19.21808624267578,4.66,-1.72,0.28,4.97
19.221774101257324,7.15,-3.32,0.78,7.92
19.237510204315186,0.78,-3.04,1.91,3.67
19.24017906188965,-5.26,-3.13,2.22,6.51
19.252785205841064,-8.28,-4.03,1.83,9.38
19.260876178741455,-9.8,-4.42,1.0,10.79
19.27089500427246,-8.68,-4.17,0.28,9.63
19.281780242919922,-5.67,-3.65,-0.09,6.74
19.316845893859863,-3.93,-3.19,-0.23,5.06
19.318220138549805,-3.32,-3.09,-0.3,4.54
19.319361209869385,-3.14,-3.13,-0.43,4.45
19.322216987609863,-3.26,-3.2,-0.53,4.59
19.330902099609375,-3.51,-3.23,-0.59,4.8
19.34103298187256,-3.51,-3.19,-0.47,4.76
19.351104021072388,-3.52,-3.07,-0.49,4.69
19.361770153045654,-3.62,-2.57,-0.48,4.46
19.371828079223633,-3.56,-1.9,-0.21,4.04
19.38219404220581,-3.38,-1.14,0.25,3.57
19.415128231048584,-2.99,-0.35,0.69,3.08
19.416770935058594,-2.34,0.38,0.89,2.53
19.417903900146484,-1.55,1.09,0.93,2.11
19.421860218048096,-0.5,1.74,0.68,1.93
19.43731689453125,0.74,2.25,0.26,2.38
19.441339015960693,1.76,2.65,-0.19,3.18
19.45292901992798,2.11,2.98,-0.58,3.69
19.462301015853882,1.81,3.41,-0.83,3.94
19.47219204902649,1.42,4.17,-0.87,4.49
19.482649087905884,1.5,5.48,-0.54,5.7
19.518476009368896,2.65,6.81,-0.12,7.3
19.519824028015137,4.55,7.43,0.47,8.72
19.52095890045166,6.02,7.07,1.07,9.34
19.540971040725708,6.17,6.23,1.42,8.88
19.541873931884766,4.56,5.92,2.08,7.75
19.555721044540405,3.11,4.92,3.77,6.93
19.557521104812622,2.09,3.75,4.64,6.32
19.572899103164673,1.76,2.27,3.48,4.51
19.575881958007812,3.08,2.37,1.43,4.14
19.588187217712402,5.45,2.71,2.06,6.42
19.618035078048706,9.45,1.93,2.0,9.85
19.619601011276245,11.53,1.68,1.07,11.7
19.620755195617676,11.98,1.56,-1.53,12.17
19.641738891601562,14.07,0.81,-4.18,14.7
19.643630981445312,14.61,0.42,-4.47,15.28
19.655617237091064,13.16,0.6,-7.56,15.18
19.657368183135986,11.51,3.05,-12.34,17.14
19.670039176940918,7.5,5.01,-20.42,22.32
19.672938108444214,-5.77,9.62,-10.23,15.18
19.687287092208862,-12.94,12.81,3.78,18.59
19.713816165924072,-6.99,8.17,3.41,11.27
19.715394973754883,2.43,2.3,1.39,3.62
19.716588020324707,4.48,3.5,1.26,5.82
19.723208904266357,5.84,6.03,6.63,10.69
19.733270168304443,9.06,0.5,12.74,15.64
19.74321222305298,11.21,-1.93,7.7,13.73
19.75358819961548,3.7,-3.18,5.94,7.68
19.76425790786743,-3.46,-1.99,1.83,4.39
19.774013996124268,-4.54,1.67,-4.78,6.8
19.78476309776306,-2.01,2.29,-10.06,10.51
19.82227611541748,2.08,2.25,-9.59,10.06
19.82385802268982,5.18,1.46,-5.4,7.62
19.824995040893555,5.92,-0.73,-1.06,6.05
19.841296195983887,4.02,-2.29,1.86,4.98
19.842449188232422,1.01,-1.97,3.56,4.19
19.855358123779297,-1.64,-0.9,4.17,4.57
19.85709524154663,-2.8,0.13,2.91,4.04
19.87048101425171,-2.0,0.61,0.16,2.09
19.874587059020996,-0.06,0.56,-1.35,1.46
19.887479066848755,1.44,0.24,-1.45,2.05
19.91826605796814,1.58,-0.04,-1.01,1.87
19.919879913330078,0.64,-0.15,-0.26,0.7
19.921024084091187,-0.69,0.03,0.62,0.92
19.94200611114502,-1.69,0.19,1.07,2.0
19.94376301765442,-1.8,0.16,0.88,2.0
19.95560598373413,-0.92,-0.04,0.68,1.14
19.95729923248291,0.25,-0.26,0.52,0.63
19.97044610977173,0.87,-0.21,0.01,0.89
19.975253105163574,0.56,-0.01,-0.08,0.56
19.987911224365234,-0.14,0.12,0.05,0.19
20.021697998046875,-0.42,0.23,0.18,0.51
20.02328395843506,-0.26,0.16,0.4,0.5
20.024425983428955,0.04,0.08,0.2,0.21
20.041841983795166,0.25,0.11,0.01,0.27
20.042854070663452,0.25,0.13,-0.17,0.32
20.054883003234863,0.21,0.16,-0.19,0.32
20.056479930877686,0.04,0.1,-0.27,0.29
20.070914030075073,-0.29,0.07,-0.4,0.49
20.07557702064514,-0.51,0.2,0.01,0.54
20.09036612510681,-0.57,0.33,0.38,0.76
20.11828899383545,-0.78,0.28,0.23,0.86
20.11988401412964,-0.63,0.22,-0.25,0.71
20.12102508544922,-0.36,0.31,-0.3,0.56
20.14177417755127,-0.22,0.39,0.24,0.5
20.142961978912354,0.23,0.1,0.79,0.82
20.15578007698059,0.32,0.23,0.34,0.52
20.157562017440796,-0.25,0.47,0.48,0.71
20.170536994934082,-0.56,0.47,0.48,0.87
20.17636013031006,-0.5,0.41,0.21,0.67
20.188106060028076,-0.3,0.45,0.28,0.6
20.22032904624939,-0.15,0.34,0.5,0.62
20.221784114837646,-0.15,0.42,0.57,0.72
20.22285509109497,-0.22,0.5,0.54,0.76
20.2418851852417,-0.33,0.47,0.34,0.66
20.2429940700531,-0.16,0.47,0.09,0.5
20.255738019943237,0.08,0.47,0.01,0.47
20.257411003112793,0.16,0.44,0.02,0.46
20.270634174346924,0.02,0.44,0.13,0.45
20.276920080184937,-0.33,0.44,0.14,0.56
20.287711143493652,-0.58,0.42,0.1,0.72
20.323737144470215,-0.8,0.32,0.07,0.86
20.325334072113037,-0.85,0.24,-0.05,0.88
20.326483011245728,-0.77,0.26,0.03,0.81
20.341885089874268,-0.97,0.26,0.28,1.04
20.34296989440918,-1.09,0.27,0.5,1.22
20.354926109313965,-1.16,0.16,0.6,1.31
20.357157230377197,-1.04,0.0,0.59,1.19
20.37079906463623,-0.97,0.02,0.48,1.08
20.37755298614502,-1.08,0.19,0.37,1.15
20.387890100479126,-1.14,0.42,0.02,1.21
20.42241096496582,-1.14,0.93,-0.12,1.47
20.42396903038025,-1.2,1.15,0.36,1.7
20.425114154815674,-1.45,1.3,0.47,2.0
20.442142963409424,-1.98,1.6,0.55,2.6
20.443273067474365,-2.38,1.9,0.46,3.07
20.45563507080078,-2.54,2.3,0.27,3.43
20.45767116546631,-2.53,2.97,0.15,3.9
20.470794200897217,-2.88,3.52,0.37,4.56
20.47821307182312,-3.76,3.91,0.48,5.44
20.488564014434814,-4.69,4.32,0.43,6.39
20.520827054977417,-5.54,4.93,0.36,7.42
20.522393226623535,-6.65,5.56,0.25,8.67
20.52357292175293,-8.09,5.71,0.11,9.9
20.54180908203125,-8.79,5.36,-0.27,10.29
20.542999029159546,-8.07,4.83,-0.54,9.42
20.55495595932007,-6.91,4.29,-0.56,8.15
20.55826711654663,-6.07,4.18,0.09,7.37
20.570988178253174,-4.28,4.65,1.02,6.4
20.57898211479187,-1.82,4.58,2.4,5.48
20.59080219268799,-0.31,4.73,2.45,5.33
20.62223196029663,-0.17,4.16,1.95,4.59
20.6237690448761,-1.52,3.32,2.18,4.25
20.62489414215088,-3.05,1.87,3.16,4.77
20.642285108566284,-3.52,0.34,2.92,4.58
20.643484115600586,-3.54,-0.63,2.68,4.48
20.65547800064087,-2.91,-1.54,1.97,3.83
20.65892219543457,-1.94,-2.56,1.57,3.57
20.67088794708252,-0.88,-2.74,1.9,3.44
20.67939519882202,1.75,-2.53,0.4,3.1
20.689824104309082,2.45,-3.12,0.02,3.96
20.726614952087402,-1.41,-3.35,1.23,3.83
20.72815203666687,-5.32,-3.61,1.62,6.63
20.72929096221924,-7.65,-4.2,1.28,8.82
20.74035906791687,-7.6,-4.4,0.64,8.8
20.741526126861572,-5.62,-4.03,-0.27,6.92
20.755978107452393,-3.73,-3.39,-0.88,5.11
20.759509086608887,-3.13,-2.91,-1.09,4.41
20.770551204681396,-3.46,-2.65,-0.96,4.46
20.78008508682251,-3.95,-2.55,-0.58,4.73
20.79045295715332,-4.09,-2.48,-0.24,4.78
20.82431697845459,-3.99,-2.33,-0.26,4.62
20.82589817047119,-4.23,-2.03,-0.58,4.72
20.82701301574707,-4.71,-1.51,-0.66,4.98
20.841567993164062,-4.88,-0.92,-0.14,4.96
20.842691898345947,-4.55,-0.32,0.68,4.61
20.85596203804016,-3.88,0.3,0.96,4.0
20.860111236572266,-3.02,0.87,0.63,3.2
20.87062907218933,-2.09,1.35,0.03,2.48
20.880524158477783,-1.21,1.84,-0.67,2.3
20.890921115875244,-0.48,2.26,-1.25,2.62
20.92473316192627,0.09,2.58,-1.68,3.08
20.926307201385498,0.67,2.77,-1.88,3.41
20.927420139312744,1.13,3.02,-1.83,3.7
20.942156076431274,1.33,3.33,-1.67,3.95
20.94331693649292,1.29,3.68,-1.5,4.17
20.955976963043213,1.18,4.06,-1.41,4.45
20.960741996765137,1.37,4.22,-1.3,4.62
20.971646070480347,1.92,4.09,-1.09,4.64
20.981117010116577,2.8,4.12,-0.87,5.05
20.99160099029541,3.96,4.52,-0.58,6.03
21.027512073516846,5.02,4.73,-0.1,6.89
21.0291690826416,5.65,4.22,0.16,7.05
21.030312061309814,5.74,3.37,0.07,6.65
21.040210008621216,6.27,2.6,0.16,6.78
21.041372060775757,6.32,2.39,0.32,6.76
21.056312084197998,6.92,2.04,-0.41,7.22
21.06136202812195,7.77,2.33,-1.86,8.32
21.07136821746826,8.9,2.01,-2.53,9.46
21.082061052322388,10.5,1.58,-1.33,10.7
21.092339038848877,11.28,1.13,-0.66,11.35
21.124948978424072,11.25,0.32,-2.34,11.49
21.12652611732483,11.18,2.5,-5.44,12.68
21.12764596939087,12.51,3.87,-7.61,15.14
21.14210605621338,6.3,2.24,-7.37,9.95
21.143370151519775,-6.62,5.62,0.66,8.7
21.15493106842041,-8.96,10.66,1.47,14.0
21.16209101676941,-1.8,7.83,-1.35,8.14
21.17257022857666,2.55,5.59,2.72,6.71
21.182374000549316,5.89,5.44,6.32,10.2
21.192973136901855,10.13,3.27,-2.03,10.83
21.22615098953247,8.25,1.13,-4.22,9.33
21.227691173553467,-0.06,-2.99,4.75,5.61
21.228843212127686,-4.86,-2.94,6.1,8.33
21.23958921432495,-5.11,-0.47,-1.84,5.45
21.24215316772461,-0.16,0.65,-4.46,4.5
21.2552490234375,4.53,0.84,-1.17,4.75
21.262524127960205,5.53,0.07,-0.74,5.57
21.272861003875732,3.67,-0.63,-1.05,3.86
21.28326416015625,1.1,-0.87,0.13,1.4
21.293715000152588,-0.95,-0.03,0.25,0.98
21.33252716064453,-1.42,0.53,0.31,1.54
21.33420991897583,-0.82,0.2,0.61,1.04
21.33522891998291,0.0,-0.16,0.25,0.29
21.33937120437622,0.81,-0.32,0.02,0.87
21.3555850982666,1.15,-0.22,-0.02,1.17
21.3573260307312,0.67,0.0,-0.08,0.67
21.371779918670654,-0.17,0.13,-0.05,0.21
21.374207973480225,-0.7,0.23,-0.01,0.73
21.38890504837036,-0.59,0.25,0.06,0.64
21.394245147705078,-0.31,0.17,0.01,0.35
21.432125091552734,-0.17,0.11,0.19,0.27
21.433496952056885,-0.05,0.11,0.14,0.18
21.434600114822388,0.2,-0.07,0.44,0.48
21.439330101013184,0.46,-0.12,0.34,0.58
21.44339895248413,0.33,-0.07,0.31,0.45
21.455273151397705,-0.06,0.01,0.33,0.33
21.463723182678223,-0.17,0.06,0.27,0.32
21.4737811088562,-0.25,0.09,0.21,0.33
21.48453712463379,-0.33,0.18,0.24,0.44
21.494389057159424,-0.16,0.19,0.21,0.32
21.52967596054077,0.05,0.14,0.3,0.33
21.531184196472168,0.09,0.07,0.3,0.32
21.53222894668579,-0.05,0.06,0.23,0.24
21.53978705406189,-0.24,0.24,0.21,0.39
21.54421901702881,-0.26,0.37,0.31,0.54
21.554466009140015,-0.3,0.38,0.21,0.52
21.56403112411499,-0.24,0.37,0.13,0.45
21.574469089508057,-0.05,0.47,0.14,0.49
21.585684061050415,0.17,0.61,0.3,0.7
21.594943046569824,0.1,0.58,0.22,0.62
21.62800693511963,0.01,0.62,0.13,0.63
21.62957000732422,-0.16,0.77,0.18,0.8
21.630674123764038,-0.6,0.72,0.05,0.93
21.640231132507324,-0.68,0.61,-0.31,0.96
21.64477801322937,-0.39,0.47,-0.57,0.83
21.65569806098938,-0.24,0.42,-0.43,0.64
21.66489601135254,-0.32,0.4,-0.02,0.51
21.674993991851807,-0.73,0.33,0.35,0.87
21.68576192855835,-0.97,0.13,0.32,1.02
21.695824146270752,-0.89,-0.04,0.26,0.92
21.73002004623413,-0.77,-0.1,0.35,0.85
21.731564044952393,-0.74,-0.18,0.34,0.83
21.732685089111328,-0.62,-0.27,0.43,0.8
21.739660024642944,-0.53,-0.21,0.54,0.78
21.745142936706543,-0.66,-0.16,0.46,0.82
21.755314111709595,-0.55,-0.1,0.24,0.6
21.765976905822754,-0.2,-0.05,0.03,0.2
21.775569915771484,0.04,-0.02,0.03,0.05
21.78594398498535,0.04,0.0,0.01,0.04
21.796571016311646,-0.15,0.06,-0.08,0.18
21.83006000518799,-0.16,0.07,-0.11,0.2
21.8316330909729,-0.13,0.05,0.01,0.13
21.832767009735107,-0.21,0.03,0.06,0.22
21.839757919311523,-0.33,0.12,0.06,0.35
21.845733165740967,-0.44,0.27,0.18,0.54
21.856290102005005,-0.48,0.48,0.4,0.78
21.866323947906494,-0.58,0.66,0.62,1.07
21.876801013946533,-0.82,0.78,0.69,1.32
21.886964082717896,-0.99,0.86,0.72,1.49
21.897236108779907,-1.07,0.92,0.62,1.54
21.931092023849487,-1.12,1.01,0.43,1.56
21.932651042938232,-1.15,1.12,0.28,1.62
21.93380904197693,-1.33,1.21,0.19,1.8
21.93989896774292,-1.53,1.37,0.04,2.05
21.94638204574585,-1.74,1.47,0.07,2.27
21.956579208374023,-2.08,1.72,-0.04,2.69
21.966934204101562,-2.36,1.93,-0.05,3.04
21.977358102798462,-2.62,2.15,-0.13,3.39
21.987332105636597,-2.96,2.53,-0.22,3.9
21.99814510345459,-3.31,3.01,-0.24,4.48
22.032926082611084,-3.89,3.7,-0.24,5.37
22.034451007843018,-4.75,4.33,-0.26,6.43
22.035624980926514,-5.91,4.75,-0.54,7.6
22.039842128753662,-6.94,4.87,-1.04,8.54
22.055445194244385,-7.5,4.9,-1.42,9.07
22.05741596221924,-8.07,4.9,-1.68,9.58
22.070796012878418,-8.17,4.9,-1.88,9.71
22.077685117721558,-9.02,4.88,-2.03,10.45
22.08914303779602,-6.67,5.19,-0.94,8.5
22.098247051239014,-3.13,5.74,-0.11,6.53
22.13468599319458,0.82,5.77,1.16,5.94
22.136073112487793,1.52,4.44,3.16,5.65
22.13725709915161,-1.15,4.32,3.27,5.53
22.140841007232666,-4.32,3.86,4.42,7.28
22.147634029388428,-4.37,2.0,4.4,6.51
22.158048152923584,-3.42,0.13,3.25,4.71
22.16855502128601,-3.17,-0.98,2.77,4.32
22.17803192138672,-3.12,-1.74,2.44,4.32
22.18862509727478,-2.7,-2.57,2.3,4.38
22.198671102523804,-1.72,-2.65,3.45,4.67
22.23136615753174,0.4,-1.92,3.72,4.2
22.23293709754944,2.9,-3.01,1.69,4.5
22.234079122543335,1.65,-3.57,2.07,4.44
22.240267038345337,-2.84,-3.42,2.84,5.27
22.248764991760254,-5.64,-4.16,2.72,7.51
22.258677005767822,-7.16,-5.29,2.01,9.12
22.268681049346924,-7.69,-5.39,0.81,9.42
22.279311180114746,-6.82,-4.33,-0.22,8.08
22.289513111114502,-5.04,-3.3,-0.59,6.05
22.299658060073853,-3.57,-2.69,-0.74,4.53
22.333159923553467,-2.77,-2.45,-0.79,3.78
22.33474612236023,-2.62,-2.4,-0.79,3.63
22.335811138153076,-2.81,-2.35,-0.46,3.69
22.340266227722168,-3.0,-2.2,-0.33,3.73
22.355300903320312,-3.05,-1.73,-0.38,3.52
22.358891010284424,-2.56,-0.95,-0.34,2.75
22.37121295928955,-1.8,-0.1,-0.02,1.8
22.37954616546631,-1.3,0.61,0.35,1.47
22.389758110046387,-1.16,1.06,0.52,1.65
22.400125980377197,-1.12,1.34,0.37,1.78
22.434783935546875,-0.69,1.68,0.01,1.81
22.436156034469604,0.23,2.09,-0.48,2.15
22.437291145324707,1.27,2.45,-1.07,2.95
22.44049310684204,1.99,2.82,-1.6,3.8
22.44970417022705,2.28,3.28,-1.77,4.36
22.45983600616455,2.31,3.73,-1.56,4.65
22.47023606300354,2.21,4.13,-1.33,4.86
22.480356216430664,1.97,4.29,-0.91,4.8
22.490238189697266,1.89,4.5,-0.65,4.92
22.500838041305542,2.24,4.86,-0.61,5.38
22.53630805015564,2.66,5.0,-0.35,5.67
22.537882089614868,2.86,4.67,0.2,5.47
22.539046049118042,3.04,4.2,0.8,5.24
22.559213161468506,3.87,4.02,0.98,5.66
22.560301065444946,4.86,3.65,0.98,6.15
22.572196006774902,5.21,2.54,1.24,5.92
22.57392692565918,4.33,2.22,1.03,4.97
22.588393211364746,5.36,0.51,-0.8,5.44
22.59087610244751,7.29,1.04,-1.13,7.45
22.60552215576172,5.97,1.46,-0.58,6.17
22.634305953979492,7.19,0.49,-2.72,7.7
22.635996103286743,8.81,1.06,-3.88,9.68
22.637152194976807,10.33,0.65,-3.52,10.93
22.64101791381836,10.99,0.04,-4.42,11.84
22.650864124298096,9.52,2.33,-2.83,10.2
22.66103506088257,8.71,2.52,-2.98,9.54
22.670915126800537,3.5,1.89,-4.91,6.31
22.681303024291992,-6.58,6.65,4.33,10.3
22.691298961639404,-8.83,15.76,9.13,20.24
22.702084064483643,2.78,13.5,12.76,18.78
22.73841094970703,12.68,0.84,0.47,12.71
22.74000120162964,13.69,2.27,-15.09,20.5
22.741276025772095,2.99,2.04,-12.16,12.68
22.7600359916687,-4.2,1.03,-1.31,4.51
22.761899948120117,-5.97,-1.63,10.22,11.94
22.7729811668396,-4.85,-4.17,4.79,7.99
22.774735927581787,1.86,-2.09,-5.46,6.13
22.78919506072998,8.13,-1.35,-1.99,8.47
22.792230129241943,8.96,-1.09,1.82,9.2
22.806375980377197,4.4,0.31,1.55,4.67
22.835544109344482,-0.93,0.26,1.3,1.61
22.837122917175293,-3.91,0.61,-0.25,3.96
22.83827495574951,-2.69,1.17,-1.13,3.14
22.84175205230713,0.48,0.74,-1.34,1.6
22.85204005241394,1.81,0.22,-1.15,2.15
22.862274169921875,1.77,-0.49,0.32,1.86
22.872392177581787,1.23,-1.04,1.31,2.07
22.88314914703369,0.51,-0.78,1.17,1.49
22.89283323287964,-0.28,-0.1,0.79,0.84
22.903446197509766,-0.88,0.43,-0.01,0.97
22.93626117706299,-0.71,0.57,-0.57,1.07
22.937839031219482,0.02,0.29,-0.53,0.6
22.938977241516113,0.51,0.04,-0.3,0.59
22.959548950195312,0.44,-0.07,0.12,0.46
22.960702896118164,0.05,-0.02,0.64,0.64
22.97283411026001,-0.43,0.05,0.65,0.78
22.974581241607666,-0.65,0.11,0.4,0.77
22.988670110702515,-0.54,0.08,0.25,0.6
22.993321895599365,-0.3,0.03,0.04,0.3
23.006553173065186,-0.07,-0.03,-0.03,0.08
23.037806034088135,0.15,-0.04,-0.06,0.16
23.039368152618408,0.17,0.05,0.0,0.17
23.04050302505493,-0.03,0.07,0.28,0.29
23.060553073883057,-0.24,0.09,0.39,0.46
23.06175994873047,-0.34,0.12,0.33,0.48
23.073669910430908,-0.27,0.07,0.14,0.31
23.075391054153442,0.03,0.0,0.24,0.24
23.08876895904541,0.23,0.04,0.15,0.27
23.093645095825195,0.23,0.14,0.25,0.36
23.10583209991455,0.08,0.2,0.43,0.48
23.1393141746521,-0.16,0.18,0.48,0.53
23.14091920852661,-0.22,0.2,0.38,0.48
23.142060041427612,-0.12,0.14,0.27,0.32
23.15959405899048,-0.01,0.15,0.09,0.17
23.160831928253174,-0.13,0.2,0.25,0.34
23.1733078956604,-0.28,0.2,0.26,0.43
23.175048112869263,-0.44,0.16,0.13,0.48
23.18897294998169,-0.49,0.15,0.25,0.57
23.194293975830078,-0.54,0.11,0.38,0.66
23.20546293258667,-0.53,0.09,0.26,0.59
23.23890709877014,-0.42,0.13,0.31,0.53
23.240458011627197,-0.36,0.14,0.41,0.56
23.241461038589478,-0.41,0.12,0.34,0.54
23.259889125823975,-0.37,0.12,0.03,0.39
23.26102113723755,-0.28,0.09,0.11,0.31
23.27246403694153,-0.13,0.07,0.13,0.19
23.274688243865967,-0.14,0.1,0.01,0.17
23.288833141326904,-0.11,0.18,0.09,0.22
23.295454025268555,-0.18,0.26,0.22,0.38
23.30600118637085,-0.41,0.36,0.27,0.6
23.340930938720703,-0.47,0.43,0.26,0.68
23.342509031295776,-0.39,0.5,0.19,0.66
23.34364414215088,-0.31,0.54,0.12,0.63
23.360225200653076,-0.37,0.6,0.08,0.7
23.361412048339844,-0.51,0.68,0.09,0.85
23.37291407585144,-0.7,0.71,0.08,1.0
23.37532615661621,-0.65,0.73,0.02,0.97
23.388853073120117,-0.55,0.81,-0.17,0.99
23.395634174346924,-0.5,0.81,-0.26,0.98
23.40626096725464,-0.43,0.81,-0.23,0.94
23.438560009002686,-0.52,0.9,-0.17,1.05
23.440131187438965,-0.69,1.0,0.04,1.21
23.441286087036133,-0.85,0.98,0.18,1.3
23.460127115249634,-1.04,0.93,0.22,1.41
23.46128010749817,-1.11,0.93,0.14,1.45
23.472508907318115,-1.11,0.91,0.07,1.43
23.475869178771973,-1.07,0.98,-0.03,1.45
23.488892078399658,-1.11,1.1,-0.01,1.56
23.4964280128479,-1.33,1.2,-0.02,1.79
23.50679922103882,-1.64,1.29,0.02,2.08
23.541117191314697,-1.85,1.4,0.1,2.32
23.542649030685425,-2.15,1.49,0.1,2.61
23.5437331199646,-2.45,1.67,0.04,2.96
23.55995512008667,-2.46,1.92,0.25,3.13
23.560818195343018,-2.58,2.08,0.46,3.34
23.572893142700195,-3.25,2.31,0.51,4.01
23.576457023620605,-3.88,2.53,0.55,4.66
23.589328050613403,-4.4,2.79,0.42,5.22
23.597002029418945,-4.98,3.18,0.29,5.91
23.6072940826416,-5.57,3.8,0.35,6.75
23.643425941467285,-6.47,4.51,0.49,7.9
23.645024061203003,-8.13,5.17,0.56,9.65
23.6461660861969,-9.31,5.35,0.45,10.74
23.660397052764893,-8.46,5.19,0.09,9.92
23.661548137664795,-6.75,5.13,-0.12,8.47
23.673818111419678,-5.12,5.43,-0.09,7.46
23.677114009857178,-2.96,5.96,0.19,6.65
23.689003944396973,-0.6,6.78,0.49,6.82
23.697644233703613,-0.94,6.45,2.46,6.96
23.70841407775879,-2.76,5.12,2.74,6.42
23.74317216873169,-3.75,3.51,2.25,5.6
23.744757175445557,-3.99,2.16,1.95,4.93
23.745899200439453,-3.63,0.74,1.56,4.01
23.758563995361328,-2.99,-0.6,1.29,3.31
23.759603023529053,-2.68,-2.27,2.06,4.07
23.774229049682617,-1.86,-2.57,2.61,4.1
23.77769708633423,0.13,-2.53,1.12,2.76
23.788777112960815,-1.23,-3.0,0.8,3.33
23.798397064208984,-5.38,-3.18,1.73,6.48
23.80867624282837,-8.71,-4.25,2.48,10.0
23.84177303314209,-10.49,-5.25,2.42,11.97
23.84333896636963,-11.23,-4.75,1.5,12.28
23.844497203826904,-9.46,-3.52,0.04,10.09
23.86042308807373,-6.59,-2.66,-1.13,7.19
23.861594200134277,-5.27,-1.95,-1.65,5.85
23.872962951660156,-4.47,-1.87,-1.36,5.03
23.878607034683228,-4.16,-2.07,-0.91,4.73
23.88851809501648,-4.0,-2.23,-0.91,4.66
23.898818016052246,-3.49,-2.16,-1.29,4.3
23.909080028533936,-2.7,-1.83,-1.65,3.65
23.94507598876953,-2.11,-1.34,-1.75,3.05
23.94666290283203,-1.91,-0.79,-1.64,2.63
23.94782590866089,-1.97,-0.21,-1.41,2.43
23.958220958709717,-2.07,0.36,-1.04,2.34
23.95938205718994,-1.92,1.01,-0.7,2.27
23.97420310974121,-1.36,1.77,-0.52,2.29
23.978972911834717,-0.58,2.44,-0.28,2.52
23.98967218399048,0.09,3.16,0.16,3.16
23.999908924102783,0.43,3.88,0.65,3.95
24.009830951690674,0.49,4.55,1.25,4.74
24.04312801361084,0.52,5.44,1.83,5.76
24.044703006744385,1.1,6.92,2.19,7.34
24.04586124420166,2.67,8.03,2.23,8.75
24.05968999862671,4.59,8.4,2.63,9.92
24.060842990875244,5.75,7.6,3.41,10.12
24.07422709465027,5.49,5.85,4.37,9.13
24.07942008972168,3.69,4.65,4.69,7.56
24.089932918548584,1.75,4.13,2.88,5.33
24.10021710395813,2.43,3.59,-0.79,4.4
24.110393047332764,7.08,3.37,-2.66,8.28
24.14520502090454,12.67,2.45,-2.59,13.16
24.146799087524414,16.73,0.82,-3.48,17.1
24.14797592163086,18.4,-0.01,-5.18,19.11
24.157913208007812,17.53,0.47,-5.91,18.5
24.159672021865845,17.29,0.8,-5.76,18.24
24.173059940338135,13.68,3.19,-2.66,14.29
24.180361032485962,6.85,5.82,-3.93,9.81
24.190189123153687,-3.51,7.75,-6.71,10.83
24.20040798187256,-15.53,16.57,1.52,22.76
24.210865020751953,-14.13,18.07,0.41,22.94
24.24237823486328,-0.53,3.08,1.08,3.3
24.24389123916626,4.89,-1.32,-1.08,5.17
24.245047092437744,7.46,-0.2,-3.02,8.05
24.259273052215576,9.77,-0.07,2.34,10.04
24.26048517227173,10.59,-1.08,8.87,13.85
24.271827220916748,11.33,-2.08,7.69,13.85
24.281009197235107,7.79,-1.44,1.9,8.14
24.290736198425293,1.86,0.46,-2.22,2.93
24.301525115966797,-0.95,1.2,-3.59,3.9
24.311625003814697,-1.08,1.94,-3.65,4.27
24.345809936523438,0.12,2.08,-3.74,4.28
24.347389221191406,1.66,1.6,-3.47,4.16
24.34853506088257,2.68,0.4,-2.41,3.62
24.357664108276367,2.55,-0.69,-0.39,2.67
24.361139059066772,1.53,-1.12,1.57,2.46
24.373146057128906,0.27,-0.99,2.35,2.56
24.381293058395386,-0.67,-0.27,1.77,1.91
24.39145302772522,-0.97,0.32,0.48,1.12
24.402037143707275,-0.49,0.42,-0.63,0.9
24.412370204925537,0.67,0.14,-0.75,1.01
24.446831226348877,1.58,-0.19,-0.34,1.62
24.4484281539917,1.35,-0.26,-0.08,1.37
24.449564933776855,0.34,-0.12,0.21,0.41
24.457722187042236,-0.6,0.11,0.39,0.72
24.461502075195312,-1.01,0.19,0.34,1.08
24.47378921508789,-0.76,0.06,0.06,0.76
24.482059001922607,-0.19,-0.03,-0.18,0.26
24.491955041885376,0.24,-0.09,-0.24,0.35
24.502902030944824,0.46,-0.07,-0.16,0.49
24.512689113616943,0.47,-0.01,-0.08,0.47
24.54530620574951,0.31,0.11,0.13,0.35
24.546858072280884,0.13,0.15,0.54,0.57
24.547987937927246,0.05,0.01,0.61,0.61
24.557899951934814,0.14,-0.1,0.58,0.6
24.562125205993652,0.19,-0.04,0.67,0.69
24.573602199554443,-0.02,0.15,0.42,0.44
24.582653999328613,-0.53,0.35,0.19,0.66
24.59293508529663,-1.05,0.28,0.33,1.13
24.603379011154175,-1.31,0.09,0.45,1.38
24.613506078720093,-1.36,0.07,0.53,1.46
24.648056030273438,-1.39,0.15,0.55,1.5
24.6495361328125,-1.37,0.18,0.61,1.51
24.65068292617798,-1.27,0.2,0.74,1.48
24.65977191925049,-1.05,0.17,0.7,1.27
24.662835121154785,-0.77,0.25,0.59,1.0
24.673728942871094,-0.53,0.17,0.45,0.71
24.683088064193726,-0.51,0.17,0.14,0.55
24.693315029144287,-0.52,0.19,0.02,0.55
24.703925132751465,-0.55,0.22,-0.11,0.6
24.714043140411377,-0.51,0.27,-0.14,0.59
24.749779224395752,-0.39,0.21,-0.11,0.45
24.751363039016724,-0.3,0.19,-0.2,0.4
24.75253200531006,-0.17,0.27,-0.11,0.33
24.75777816772461,-0.07,0.27,0.08,0.29
24.76365613937378,0.03,0.19,0.11,0.22
24.77346897125244,0.15,0.17,0.16,0.27
24.783947944641113,0.26,0.29,0.22,0.44
24.793818950653076,0.17,0.35,0.13,0.41
24.80430006980896,-0.03,0.35,0.06,0.35
24.814568996429443,-0.17,0.36,0.09,0.4
24.848108053207397,-0.26,0.41,0.09,0.49
24.849565029144287,-0.25,0.43,0.04,0.49
24.85059118270874,-0.26,0.47,0.05,0.53
24.857702016830444,-0.4,0.49,0.07,0.63
24.86394691467285,-0.52,0.57,0.18,0.79
24.874494075775146,-0.72,0.66,0.24,1.0
24.88480806350708,-0.84,0.73,0.26,1.14
24.894620895385742,-0.76,0.75,0.22,1.09
24.90521001815796,-0.72,0.76,0.14,1.05
24.915349006652832,-0.7,0.82,0.28,1.11
24.949217081069946,-0.8,0.87,0.33,1.22
24.950740098953247,-1.03,0.91,0.35,1.41
24.95184898376465,-1.18,0.92,0.43,1.55
24.957961082458496,-1.36,1.02,0.41,1.74
24.96444797515869,-1.54,1.09,0.24,1.9
24.974637031555176,-1.55,1.09,0.08,1.89
24.984997034072876,-1.5,1.1,-0.13,1.86
24.99550724029541,-1.65,1.2,-0.48,2.09
25.00591802597046,-1.79,1.33,-0.79,2.36
25.015965938568115,-1.83,1.45,-0.87,2.49
25.052091121673584,-1.96,1.7,-0.85,2.73
25.053643226623535,-2.36,2.12,-0.72,3.25
25.054814100265503,-2.87,2.67,-0.37,3.93
25.058430194854736,-3.6,3.29,0.04,4.87
25.0656099319458,-4.65,3.95,0.38,6.11
25.07566213607788,-5.95,4.67,0.51,7.58
25.085800170898438,-7.58,5.5,0.34,9.37
25.09618091583252,-9.17,6.14,-0.22,11.03
25.106081008911133,-9.4,6.19,-0.65,11.27
25.116559982299805,-8.66,5.79,-0.81,10.44
25.15420913696289,-7.86,5.18,-0.69,9.43
25.155834197998047,-6.82,4.98,-0.28,8.44
25.157012939453125,-4.9,5.64,0.55,7.49
25.159092903137207,-1.78,6.66,1.56,7.06
25.16572403907776,1.91,7.21,1.71,7.65
25.17615008354187,1.8,5.81,3.44,6.98
25.1861891746521,-1.58,4.04,4.15,6.0
25.196490049362183,-4.16,2.24,3.25,5.73
25.2063410282135,-5.4,0.27,2.18,5.82
25.216847896575928,-5.52,-0.83,1.65,5.82
25.246450901031494,-4.93,-1.57,1.54,5.39
25.24805498123169,-3.83,-2.57,2.24,5.12
25.249200105667114,-1.72,-2.21,2.99,4.09
25.25908613204956,1.61,-2.44,1.96,3.51
25.26633596420288,3.17,-3.75,1.46,5.12
25.276906967163086,-1.07,-3.77,2.04,4.41
25.287033081054688,-5.61,-4.35,2.66,7.58
25.29779291152954,-8.11,-5.81,2.9,10.38
25.30731701850891,-8.76,-6.91,2.39,11.41
25.317841053009033,-7.62,-6.81,1.25,10.29
25.35507607460022,-5.67,-5.88,0.1,8.16
25.356669902801514,-4.14,-4.71,-0.54,6.29
25.357830047607422,-3.35,-3.36,-0.59,4.78
25.3784921169281,-2.83,-2.34,-0.45,3.69
25.380317211151123,-2.57,-1.77,-0.35,3.14
25.38964605331421,-2.91,-1.12,-0.62,3.17
25.391386032104492,-3.51,-0.32,-1.13,3.7
25.40741205215454,-3.91,0.44,-1.27,4.13
25.41022300720215,-4.09,1.01,-0.76,4.28
25.423222064971924,-4.01,1.37,-0.27,4.24
25.449923038482666,-3.58,1.56,-0.13,3.9
25.451505184173584,-2.75,1.78,-0.29,3.28
25.452681064605713,-1.59,1.96,-0.53,2.57
25.458238124847412,-0.75,2.09,-0.6,2.3
25.467888116836548,-0.42,2.39,-0.74,2.53
25.478079080581665,-0.21,2.75,-0.75,2.85
25.488145112991333,0.06,3.19,-0.43,3.21
25.498302936553955,0.34,3.62,-0.02,3.63
25.508522033691406,0.6,4.11,0.2,4.15
25.51881217956543,0.93,4.77,0.1,4.86
25.552666187286377,1.48,5.59,-0.16,5.78
25.554203033447266,2.11,6.92,-0.33,7.24
25.555357933044434,3.25,7.15,0.34,7.86
25.55876398086548,5.1,6.17,1.67,8.17
25.56850290298462,7.37,5.16,2.09,9.23
25.57858109474182,8.09,5.06,1.34,9.63
25.588465213775635,8.35,3.53,-0.21,9.06
25.599253177642822,8.91,1.95,-2.58,9.47
25.609199047088623,9.03,1.29,-4.04,9.97
25.61926007270813,9.8,0.73,-5.06,11.05
25.652153968811035,10.8,0.42,-5.44,12.1
25.653799057006836,11.73,0.19,-5.54,12.97
25.65496802330017,12.71,0.38,-4.65,13.53
25.658858060836792,11.93,2.94,-1.44,12.37
25.669076919555664,10.09,7.57,6.68,14.27
25.679264068603516,6.47,3.42,11.03,13.23
25.68924307823181,-4.94,1.52,10.83,12.0
25.699403047561646,-11.94,10.63,7.56,17.68
25.70970916748047,-4.35,13.04,0.59,13.75
25.720384120941162,3.11,5.9,4.12,7.83
25.753520011901855,7.23,3.93,4.56,9.4
25.75509023666382,10.93,4.38,-4.25,12.51
25.75626301765442,14.73,5.33,-17.64,23.59
25.75966215133667,7.62,1.22,-9.16,11.97
25.769958019256592,-1.05,-1.34,3.64,4.01
25.780352115631104,-3.94,-3.84,6.23,8.31
25.789732933044434,-2.3,-2.79,-2.1,4.18
25.800117015838623,2.88,-0.84,0.43,3.03
25.81046724319458,4.33,-0.48,4.07,5.96
25.821002960205078,1.75,0.2,1.18,2.12
25.855156898498535,-0.68,0.0,0.21,0.71
25.85673999786377,-1.53,0.1,-0.77,1.71
25.85788917541504,0.01,0.66,-2.17,2.26
25.877346992492676,2.61,0.64,-1.61,3.13
25.878192901611328,3.51,0.01,-0.6,3.56
25.891549110412598,2.28,-0.48,-0.23,2.34
25.893260955810547,0.69,-0.57,0.45,1.0
25.906975030899048,-0.11,-0.24,0.82,0.86
25.910933017730713,-0.23,0.28,0.38,0.52
25.92384910583496,0.05,0.29,0.21,0.36
25.955101013183594,0.3,0.1,0.29,0.42
25.956722021102905,0.23,0.12,0.09,0.27
25.957832098007202,-0.1,0.13,0.1,0.19
25.977667093276978,-0.29,0.07,0.19,0.35
25.97879910469055,-0.25,0.02,0.35,0.43
25.991254091262817,-0.19,-0.11,0.61,0.64
25.992949962615967,-0.21,-0.22,0.68,0.74
26.008272171020508,-0.22,-0.25,0.57,0.66
26.011816024780273,-0.18,-0.13,0.4,0.45
26.0241641998291,-0.04,-0.06,0.29,0.29
26.05449914932251,-0.04,-0.07,0.03,0.08
26.055882930755615,-0.3,0.11,-0.07,0.32
26.057080030441284,-0.6,0.42,0.0,0.73
26.078604221343994,-0.77,0.49,0.3,0.96
26.07935404777527,-0.81,0.24,0.49,0.97
26.09364604949951,-0.66,-0.02,0.32,0.73
26.095404148101807,-0.43,-0.11,0.2,0.48
26.106802940368652,-0.28,-0.03,0.21,0.35
26.112118244171143,-0.14,0.05,0.42,0.44
26.124422073364258,-0.26,-0.08,0.87,0.91
26.15862202644348,-0.49,-0.3,1.1,1.24
26.16020393371582,-0.67,-0.19,0.97,1.19
26.16135001182556,-0.91,0.47,0.68,1.22
26.17769193649292,-1.12,0.77,0.3,1.39
26.178864002227783,-0.75,0.42,-0.03,0.86
26.191291093826294,0.05,0.04,-0.27,0.27
26.193207025527954,0.52,-0.02,-0.14,0.53
26.2070631980896,0.45,0.05,-0.04,0.45
26.21274709701538,0.16,0.18,0.05,0.24
26.224642038345337,-0.07,0.18,0.15,0.24
26.25838613510132,-0.19,0.22,0.08,0.3
26.25990605354309,-0.07,0.31,0.08,0.32
26.26094102859497,0.19,0.28,0.07,0.34
26.277849197387695,0.33,0.24,0.01,0.4
26.279016971588135,0.22,0.31,-0.01,0.38
26.291458129882812,-0.22,0.44,0.2,0.53
26.29334592819214,-0.68,0.49,0.31,0.89
26.306547164916992,-0.83,0.52,0.24,1.0
26.31317400932312,-0.77,0.61,0.25,1.01
26.32399320602417,-0.71,0.68,0.28,1.02
26.358386993408203,-0.66,0.69,0.17,0.96
26.35996103286743,-0.67,0.71,0.04,0.97
26.361093044281006,-0.74,0.8,0.15,1.1
26.378250122070312,-0.91,0.88,0.16,1.27
26.37941002845764,-1.03,0.97,0.14,1.42
26.391040086746216,-1.04,1.07,0.22,1.5
26.393440008163452,-1.15,1.15,0.27,1.64
26.406339168548584,-1.2,1.07,0.15,1.61
26.413784980773926,-1.08,1.02,-0.01,1.48
26.42461109161377,-1.04,0.94,-0.33,1.44
26.458014011383057,-0.96,0.82,-0.49,1.35
26.45960307121277,-0.98,0.89,-0.43,1.39
26.460739135742188,-1.21,1.1,-0.13,1.64
26.47844409942627,-1.58,1.24,0.18,2.01
26.479595184326172,-1.9,1.37,0.45,2.38
26.492197036743164,-2.23,1.46,0.53,2.71
26.494007110595703,-2.55,1.61,0.4,3.04
26.5073881149292,-2.84,1.76,0.26,3.35
26.514589071273804,-3.11,1.91,0.15,3.65
26.52499294281006,-3.69,2.32,-0.06,4.35
26.55975914001465,-4.45,2.96,-0.17,5.34
26.561310052871704,-5.24,3.57,-0.21,6.34
26.562408924102783,-6.1,3.95,-0.21,7.27
26.578152179718018,-6.98,4.3,-0.23,8.2
26.579315185546875,-7.96,5.09,-0.22,9.45
26.591459035873413,-9.06,6.1,-0.16,10.92
26.594970226287842,-10.04,6.66,0.3,12.05
26.60686492919922,-9.74,6.44,0.31,11.68
26.615114212036133,-7.09,6.43,0.51,9.58
26.62550711631775,-3.4,6.92,0.93,7.76
26.65839910507202,0.54,7.44,1.97,7.71
26.659987926483154,1.88,7.75,2.65,8.4
26.6611270904541,-0.97,7.39,3.99,8.45
26.67862606048584,-3.21,5.15,3.96,7.24
26.679757118225098,-3.71,2.29,3.71,5.72
26.695295095443726,-3.93,0.2,3.01,4.95
26.697154998779297,-4.35,-1.28,1.74,4.85
26.707632064819336,-4.87,-2.33,1.88,5.71
26.71605110168457,-4.27,-2.18,3.23,5.78
26.72605323791504,-0.95,-1.85,2.09,2.94
26.76266622543335,1.76,-2.87,0.66,3.43
26.764251232147217,-0.79,-3.21,1.33,3.56
26.7654230594635,-4.84,-3.51,2.37,6.43
26.776912212371826,-7.1,-4.89,2.57,8.99
26.77805519104004,-7.77,-5.88,1.65,9.88
26.792341232299805,-7.04,-5.47,0.12,8.91
26.795875072479248,-5.55,-4.31,-1.09,7.11
26.80695915222168,-4.33,-3.49,-1.59,5.78
26.816576957702637,-3.94,-2.91,-1.49,5.11
26.82676601409912,-3.89,-2.62,-1.04,4.8
26.85989809036255,-3.62,-2.73,-0.58,4.57
26.861483097076416,-3.49,-2.84,-0.28,4.5
26.86262321472168,-3.59,-2.66,-0.3,4.47
26.878695011138916,-3.69,-2.17,-0.59,4.32
26.879854202270508,-3.53,-1.57,-0.7,3.92
26.890981197357178,-3.51,-0.98,-0.18,3.64
26.896493911743164,-3.59,-0.25,0.67,3.66
26.906853199005127,-3.79,0.68,1.37,4.08
26.916962146759033,-3.81,1.84,1.8,4.59
26.927278995513916,-3.23,2.96,1.25,4.55
26.963231086730957,-1.83,3.82,0.43,4.25
26.964800119400024,0.22,4.09,0.41,4.11
26.965965032577515,2.08,3.87,0.37,4.4
26.976426124572754,2.98,3.8,-0.27,4.83
26.977612018585205,2.84,4.02,-1.05,5.03
26.99231195449829,2.34,4.44,-1.6,5.26
26.997051239013672,2.52,4.75,-2.22,5.81
27.007412910461426,3.39,4.74,-2.41,6.3
27.017821073532104,4.32,4.61,-2.56,6.81
27.027934074401855,5.17,4.31,-3.19,7.44
27.061094045639038,5.71,3.6,-3.64,7.66
27.062637090682983,5.74,2.76,-3.64,7.33
27.063602924346924,5.36,2.04,-3.43,6.68
27.078432083129883,5.06,1.63,-3.43,6.32
27.07946491241455,5.19,1.54,-3.28,6.32
27.09130620956421,5.87,1.67,-2.59,6.62
27.097772121429443,6.68,1.88,-0.77,6.98
27.108129024505615,6.92,1.75,1.59,7.31
27.118223190307617,6.03,1.24,2.24,6.55
27.129017114639282,4.62,1.46,1.53,5.08
27.165955066680908,4.1,1.8,2.36,5.06
27.16752815246582,7.36,1.08,2.67,7.9
27.16871404647827,11.13,1.04,1.18,11.24
27.175616025924683,12.9,1.52,-2.44,13.21
27.177908897399902,12.09,4.69,-5.31,14.01
27.19173002243042,12.69,7.83,-12.54,19.48
27.19795513153076,2.83,8.22,-6.8,11.03
27.208494186401367,-10.68,14.09,3.92,18.1
27.218317985534668,-3.1,10.06,-2.1,10.73
27.228938102722168,4.79,1.75,-0.88,5.17
27.262132167816162,5.71,2.74,1.22,6.44
27.263728141784668,6.56,3.78,5.65,9.44
27.26486110687256,8.1,0.38,7.12,10.79
27.277414083480835,5.58,-0.49,1.83,5.89
27.278609037399292,0.61,0.41,-0.69,1.0
27.292643070220947,-1.65,-0.53,0.08,1.73
27.299185037612915,-1.06,-0.12,-1.58,1.9
27.30923104286194,1.63,0.26,-3.82,4.16
27.319615125656128,3.61,0.63,-3.36,4.97
27.329998016357422,3.31,0.33,-0.89,3.44
27.36664390563965,1.36,-0.45,1.06,1.78
27.368221044540405,-0.53,-0.96,2.26,2.51
27.369405031204224,-1.6,-0.86,2.14,2.8
27.37578821182251,-1.44,-0.19,1.22,1.89
27.379108905792236,-0.16,0.15,0.28,0.35
27.391900062561035,0.78,0.15,-0.33,0.86
27.3997540473938,0.93,-0.02,-0.32,0.98
27.409605026245117,0.63,-0.06,-0.29,0.69
27.420506954193115,0.04,0.14,-0.16,0.21
27.43033790588379,-0.55,0.3,0.28,0.68
27.463418006896973,-0.95,0.21,0.67,1.18
27.46500301361084,-1.08,0.04,0.76,1.32
27.466132164001465,-0.93,-0.08,0.68,1.15
27.47619605064392,-0.58,-0.09,0.38,0.69
27.4796462059021,-0.16,-0.04,0.33,0.36
27.49184799194336,0.14,-0.1,0.51,0.53
27.500060081481934,0.27,-0.09,0.22,0.35
27.51033902168274,0.33,-0.03,0.04,0.33
27.521026134490967,0.36,-0.01,0.11,0.37
27.530821084976196,0.36,0.05,-0.07,0.37
27.56664514541626,0.48,0.07,-0.1,0.49
27.568064212799072,0.48,0.05,0.05,0.48
27.569115161895752,0.32,0.04,0.23,0.39
27.575972080230713,-0.01,-0.03,0.44,0.44
27.58029317855835,-0.42,-0.02,0.54,0.68
27.591525077819824,-0.56,0.03,0.32,0.64
27.600932121276855,-0.37,0.13,0.11,0.4
27.610804080963135,-0.19,0.19,0.09,0.28
27.62138605117798,-0.19,0.12,0.25,0.33
27.631490230560303,-0.23,0.12,0.22,0.34
27.664984226226807,-0.23,0.16,0.07,0.28
27.666563987731934,-0.22,0.19,0.08,0.3
27.66770911216736,-0.25,0.18,-0.15,0.34
27.676449060440063,-0.3,0.19,0.06,0.36
27.68084406852722,-0.44,0.22,0.07,0.49
27.692370891571045,-0.59,0.28,-0.21,0.68
27.701465129852295,-0.54,0.27,-0.31,0.67
27.712537050247192,-0.35,0.27,-0.21,0.48
27.722251892089844,-0.14,0.12,0.02,0.18
27.732182025909424,-0.03,0.13,0.04,0.13
27.766751050949097,-0.16,0.35,0.24,0.45
27.76837396621704,-0.27,0.38,0.21,0.51
27.76952600479126,-0.26,0.33,0.28,0.5
27.776206016540527,-0.11,0.25,0.39,0.47
27.781426906585693,-0.12,0.13,0.1,0.2
27.79179310798645,-0.15,0.09,-0.25,0.3
27.8020339012146,-0.04,0.31,-0.22,0.38
27.81241512298584,-0.16,0.51,0.11,0.54
27.822768211364746,-0.49,0.7,0.29,0.9
27.833420038223267,-0.75,0.98,0.38,1.29
27.868032932281494,-0.92,1.23,0.55,1.63
27.869593143463135,-1.06,1.36,0.48,1.78
27.87073302268982,-1.07,1.37,0.4,1.78
27.876007080078125,-1.15,1.24,0.22,1.7
27.882517099380493,-1.38,1.06,-0.19,1.75
27.892643928527832,-1.34,1.03,-0.34,1.72
27.902677059173584,-1.41,1.34,-0.12,1.94
27.913105964660645,-2.03,1.68,0.29,2.65
27.923315048217773,-2.73,1.84,0.58,3.34
27.933417081832886,-3.15,1.95,0.7,3.77
27.966982126235962,-3.3,1.95,0.58,3.87
27.968497037887573,-3.34,1.81,0.29,3.8
27.969615936279297,-3.39,1.84,-0.2,3.86
27.97633123397827,-3.63,2.09,-0.65,4.23
27.982698917388916,-4.1,2.27,-1.07,4.8
27.993189096450806,-4.62,2.39,-1.52,5.41
28.00327706336975,-5.15,2.75,-1.94,6.15
28.01387119293213,-5.72,3.56,-2.1,7.05
28.02396297454834,-6.5,4.73,-1.86,8.25
28.03396701812744,-7.52,6.13,-1.28,9.78
28.06827211380005,-8.45,7.38,-0.82,11.24
28.069901943206787,-9.13,8.28,-0.61,12.34
28.071078062057495,-9.97,7.97,0.15,12.76
28.076344966888428,-7.84,6.42,0.33,10.13
28.08333110809326,-3.87,5.44,1.6,6.86
28.093552112579346,-0.39,5.89,1.16,6.01
28.10391092300415,1.54,7.61,0.95,7.82
28.11459708213806,0.41,7.9,1.92,8.14
28.12436604499817,-2.57,5.67,3.02,6.91
28.13472604751587,-5.79,2.72,3.89,7.48
28.17144012451172,-7.99,0.18,3.67,8.79
28.173075199127197,-7.39,-1.85,2.84,8.13
28.17427706718445,-4.97,-3.34,1.73,6.23
28.17663311958313,-2.3,-3.4,2.23,4.67
28.184267044067383,1.36,-3.5,0.57,3.79
28.194406986236572,0.67,-4.28,0.38,4.34
28.204360008239746,-4.56,-4.19,1.77,6.44
28.214704990386963,-8.45,-5.19,3.18,10.41
28.224730968475342,-10.59,-6.58,3.38,12.91
28.235039234161377,-10.29,-6.69,2.15,12.46
28.268821239471436,-7.3,-5.63,0.32,9.22
28.27044105529785,-5.15,-4.67,-1.37,7.08
28.271682024002075,-4.27,-4.06,-2.14,6.26
28.277047157287598,-4.28,-3.25,-1.91,5.7
28.284478187561035,-4.07,-2.9,-1.43,5.19
28.295221090316772,-3.54,-2.8,-1.28,4.69
28.305289030075073,-3.15,-2.47,-1.42,4.24
28.315396070480347,-2.84,-1.96,-1.51,3.76
28.325513124465942,-2.55,-1.36,-1.27,3.15
28.336020946502686,-2.35,-0.63,-0.81,2.56
28.370462894439697,-2.19,0.15,-0.4,2.23
28.372005939483643,-1.94,0.91,-0.16,2.14
28.3731632232666,-1.44,1.7,-0.09,2.22
28.376957893371582,-0.35,2.51,-0.28,2.54
28.385411024093628,1.11,3.25,-0.61,3.48
28.39552593231201,2.31,3.96,-0.84,4.66
28.405604124069214,2.87,4.47,-0.71,5.35
28.41621708869934,2.67,5.02,-0.39,5.69
28.426352977752686,2.32,5.76,-0.02,6.2
28.43646502494812,2.36,6.31,0.34,6.74
28.472163200378418,2.82,6.82,0.65,7.4
28.473752975463867,3.64,7.26,1.15,8.2
28.474892139434814,4.81,8.38,1.18,9.73
28.495724201202393,6.62,8.53,2.25,11.02
28.49691390991211,8.83,7.31,2.82,11.8
28.508363008499146,9.91,5.75,1.88,11.61
28.510119915008545,9.98,3.17,-0.91,10.51
28.524813175201416,10.17,1.3,-2.98,10.67
28.527263164520264,10.82,0.45,-2.01,11.01
28.541940212249756,11.67,1.64,-1.19,11.84
28.569051027297974,13.77,1.21,-2.57,14.05
28.57064723968506,15.11,0.3,-2.54,15.32
28.57183599472046,15.8,0.69,-3.19,16.13
28.576869010925293,12.73,2.81,-3.65,13.53
28.58652114868164,3.91,2.2,-6.12,7.58
28.59677004814148,-10.59,4.41,0.55,11.48
28.606956958770752,-17.4,12.79,1.08,21.62
28.617423057556152,-8.62,10.66,-1.51,13.79
28.627333164215088,2.4,1.71,1.44,3.27
28.637625217437744,4.57,0.66,-1.61,4.89
28.671816110610962,6.21,2.61,-3.66,7.66
28.67337203025818,7.57,3.55,3.9,9.22
28.674519062042236,8.85,1.3,7.27,11.52
28.67689800262451,10.34,-0.2,0.55,10.35
28.687257051467896,5.18,0.1,-0.6,5.21
28.697347164154053,0.14,-0.75,1.57,1.74
28.707273960113525,-0.26,-0.45,1.8,1.87
28.717985153198242,0.74,0.4,-0.82,1.17
28.728844165802002,2.62,1.3,-3.84,4.82
28.738291025161743,4.3,1.12,-3.41,5.6
28.774786949157715,4.62,0.55,-2.01,5.06
28.77637004852295,3.32,0.01,-0.95,3.45
28.777535915374756,1.3,-0.33,0.22,1.35
28.796030044555664,-0.39,-0.45,1.15,1.29
28.797726154327393,-1.46,-0.39,1.56,2.17
28.809494018554688,-1.82,-0.31,1.63,2.46
28.811167240142822,-1.89,-0.13,0.96,2.12
28.82536220550537,-1.87,-0.04,0.39,1.91
28.828545093536377,-1.99,-0.32,0.89,2.2
28.842060089111328,-2.33,-0.55,1.22,2.68
28.869380950927734,-2.67,-0.61,1.37,3.06
28.87097692489624,-2.74,-0.4,1.36,3.08
28.87214207649231,-2.19,-0.11,0.9,2.37
28.878331184387207,-1.14,0.13,0.28,1.18
28.891879081726074,0.22,0.25,-0.22,0.39
28.898617029190063,1.35,0.17,-0.51,1.45
28.908509016036987,1.92,0.05,-0.47,1.97
28.919263124465942,1.89,-0.09,-0.28,1.91
28.929219245910645,1.35,-0.16,0.05,1.36
28.939868927001953,0.58,0.01,0.27,0.63
28.975354194641113,-0.07,0.22,0.34,0.41
28.976757049560547,-0.45,0.13,0.63,0.78
28.977893114089966,-0.55,-0.16,0.82,1.0
28.995825052261353,-0.31,-0.44,0.8,0.96
28.99667501449585,0.07,-0.67,0.89,1.11
29.00962805747986,0.21,-0.77,0.84,1.15
29.011343002319336,-0.15,-0.46,0.59,0.76
29.025341987609863,-0.64,0.03,0.39,0.75
29.0296950340271,-0.99,0.29,-0.05,1.03
29.04230499267578,-0.84,0.57,-0.84,1.31
29.075642108917236,-0.68,0.87,-0.98,1.47
29.077229976654053,-0.75,0.75,-0.88,1.37
29.078442096710205,-0.65,0.34,-0.24,0.77
29.095941066741943,-0.46,0.2,0.16,0.52
29.096789121627808,-0.37,0.27,0.42,0.62
29.109453201293945,-0.53,0.2,0.49,0.74
29.111194133758545,-0.19,0.1,0.47,0.51
29.124653100967407,0.35,0.01,0.42,0.54
29.13048219680786,0.29,0.08,0.15,0.33
29.143887996673584,0.01,0.29,0.26,0.38
29.169255018234253,-0.16,0.28,0.31,0.44
29.170879125595093,-0.17,0.31,0.17,0.39
29.17206311225891,-0.12,0.28,0.12,0.32
29.180373191833496,-0.1,0.23,0.08,0.26
29.190567016601562,-0.01,0.28,0.16,0.32
29.200459957122803,0.04,0.28,-0.03,0.28
29.21058702468872,0.01,0.35,-0.03,0.35
29.221022129058838,-0.22,0.43,0.11,0.49
29.23124408721924,-0.52,0.54,0.2,0.77
29.241456985473633,-0.6,0.77,0.32,1.02
29.274522066116333,-0.76,0.96,0.36,1.27
29.275868892669678,-0.9,1.02,0.41,1.42
29.277003049850464,-0.99,1.19,0.34,1.58
29.296113967895508,-1.08,1.31,0.2,1.7
29.296963214874268,-1.32,1.36,0.14,1.9
29.309446096420288,-1.49,1.44,-0.17,2.07
29.311329126358032,-1.37,1.4,-0.38,1.99
29.325268030166626,-1.38,1.54,-0.37,2.1
29.331464052200317,-1.55,1.61,-0.18,2.24
29.342233180999756,-1.87,1.69,0.08,2.52
29.378114223480225,-2.2,1.72,0.3,2.8
29.379699230194092,-2.45,1.71,0.19,2.99
29.38085699081421,-2.4,1.69,0.07,2.93
29.396411895751953,-2.18,1.67,-0.05,2.74
29.397578239440918,-2.3,1.8,-0.2,2.92
29.409241199493408,-2.53,2.07,-0.21,3.27
29.4116370677948,-2.71,2.44,0.0,3.64
29.425392150878906,-3.27,2.64,0.22,4.2
29.43211793899536,-4.03,2.66,0.41,4.84
29.442336082458496,-4.73,2.98,0.77,5.64
29.473114013671875,-6.03,3.8,1.23,7.23
29.47468900680542,-7.47,4.7,1.71,8.98
29.475828170776367,-7.97,5.43,1.8,9.81
29.49722909927368,-8.0,5.55,1.65,9.87
29.49832010269165,-8.03,5.33,1.36,9.73
29.51033306121826,-7.63,5.22,0.96,9.29
29.51230001449585,-6.29,5.54,0.82,8.42
29.525522232055664,-3.43,6.34,0.76,7.24
29.53271198272705,0.17,7.53,1.39,7.65
29.54345202445984,1.9,6.57,2.83,7.4
29.579796075820923,-0.51,4.89,3.34,5.94
29.581284046173096,-3.71,3.99,2.64,6.05
29.582435131072998,-5.11,3.19,2.37,6.47
29.596297025680542,-5.17,1.73,2.39,5.95
29.597425937652588,-4.72,-0.18,2.27,5.24
29.608983993530273,-4.45,-2.05,2.51,5.5
29.612842082977295,-3.61,-2.3,3.36,5.44
29.62553310394287,-1.05,-1.94,2.04,3.0
29.63341522216797,-1.13,-2.27,0.82,2.66
29.643784046173096,-5.1,-2.3,1.53,5.8
29.676165103912354,-8.77,-3.24,2.48,9.67
29.677764892578125,-10.77,-4.35,2.61,11.9
29.678936004638672,-11.04,-4.57,1.93,12.1
29.69618010520935,-8.43,-3.83,0.75,9.28
29.69688320159912,-5.81,-2.93,-0.35,6.51
29.70940399169922,-4.69,-2.33,-0.85,5.3
29.71341609954834,-4.5,-2.23,-0.68,5.06
29.725866079330444,-4.62,-2.4,-0.22,5.21
29.73399806022644,-4.78,-2.27,-0.02,5.29
29.74526810646057,-4.8,-1.62,-0.46,5.08
29.778918027877808,-4.36,-0.75,-0.74,4.48
29.780391216278076,-3.54,-0.04,-0.42,3.56
29.781535148620605,-2.59,0.64,0.12,2.67
29.79676604270935,-2.05,1.15,0.23,2.36
29.79792022705078,-1.78,1.43,0.08,2.28
29.809057235717773,-1.34,1.81,-0.15,2.25
29.81404209136963,-0.46,2.35,-0.63,2.47
29.82556915283203,0.67,2.94,-1.22,3.25
29.834471225738525,1.93,3.44,-1.68,4.28
29.844881057739258,3.15,3.57,-1.7,5.05
29.879878997802734,3.95,3.39,-1.42,5.39
29.881441116333008,3.98,3.31,-0.96,5.26
29.88256812095642,3.45,3.83,-0.84,5.22
29.894865036010742,3.07,4.7,-0.85,5.67
29.896045207977295,3.53,5.54,-0.2,6.57
29.9102840423584,5.14,6.19,0.76,8.08
29.9148850440979,7.28,6.7,1.61,10.02
29.926008224487305,9.12,6.55,2.23,11.44
29.93521213531494,10.67,5.86,2.51,12.42
29.94545602798462,11.52,4.85,1.76,12.62
29.979753971099854,12.01,4.03,0.6,12.68
29.981357097625732,13.47,3.67,-0.39,13.96
29.98249101638794,16.19,3.22,0.08,16.5
29.995238065719604,15.85,2.57,-0.61,16.06
29.996403217315674,14.95,2.6,-3.96,15.68
30.00959300994873,14.19,4.15,-3.93,15.29
30.015571117401123,9.5,1.03,-9.53,13.49
30.025294065475464,-6.64,5.08,-4.22,9.36
30.03592801094055,-13.13,16.53,-1.1,21.13
30.04636001586914,-4.9,15.39,-1.41,16.21
30.07922101020813,3.63,4.75,2.85,6.62
30.080811977386475,6.49,2.18,0.52,6.86
30.081960201263428,8.58,1.45,0.17,8.7
30.096763134002686,9.81,-1.76,1.39,10.06
30.097939014434814,5.89,-1.07,4.73,7.62
30.11096715927124,-1.22,-1.78,9.06,9.31
30.11586904525757,-5.15,-1.08,0.73,5.31
30.126291036605835,-3.51,0.42,-6.09,7.04
30.13696813583374,2.19,0.83,-3.87,4.52
30.147799015045166,6.32,0.7,-2.34,6.77
30.176867961883545,7.32,0.19,-3.18,7.98
30.17845392227173,5.04,-0.68,-1.49,5.29
30.179595947265625,1.14,-0.91,0.78,1.65
30.19711208343506,-1.76,-0.27,1.73,2.48
30.198251008987427,-2.7,0.13,1.87,3.28
30.209961891174316,-1.5,0.26,0.9,1.76
30.21652102470398,0.46,0.03,0.22,0.51
30.22687816619873,1.3,-0.23,-0.11,1.32
30.236926078796387,1.0,-0.17,-0.34,1.06
30.24733805656433,0.46,0.05,-0.43,0.63
30.284854888916016,0.26,0.19,-0.24,0.4
30.286448001861572,0.13,0.14,0.21,0.28
30.287593126296997,-0.32,0.06,0.42,0.53
30.293989181518555,-0.62,0.07,0.44,0.76
30.296677112579346,-0.28,0.08,0.25,0.38
30.309635162353516,0.4,0.06,-0.01,0.4
30.317058086395264,0.64,-0.06,-0.04,0.64
30.327100038528442,0.37,-0.01,0.06,0.37
30.33771800994873,0.0,0.04,0.3,0.3
30.348045110702515,-0.18,0.06,0.34,0.38
30.38263201713562,-0.07,0.03,0.4,0.4
30.38416624069214,0.09,-0.02,0.4,0.41
30.38521409034729,0.1,-0.05,0.3,0.32
30.393770217895508,0.0,0.02,0.16,0.16
30.39726495742798,-0.06,0.1,0.24,0.26
30.40951919555664,0.0,0.16,0.27,0.31
30.417768955230713,-0.02,0.14,0.35,0.37
30.428245067596436,-0.19,0.14,0.43,0.49
30.438405990600586,-0.35,0.15,0.55,0.66
30.448477029800415,-0.37,0.2,0.48,0.63
30.481171131134033,-0.3,0.32,0.34,0.55
30.48269009590149,-0.22,0.33,0.38,0.54
