time,ax,ay,az,atotal
0.005587100982666016,0.2,0.08,-0.23,0.31
0.010381221771240234,0.17,0.07,-0.33,0.37
0.02050924301147461,0.21,0.14,-0.39,0.46
0.031132221221923828,0.27,0.12,-0.4,0.49
0.04125714302062988,0.22,0.1,-0.24,0.34
0.051183223724365234,0.1,0.14,-0.05,0.17
0.06122922897338867,-0.02,0.1,0.05,0.11
0.07156896591186523,0.01,0.09,0.03,0.09
0.08125829696655273,0.05,0.1,0.02,0.11
0.09165811538696289,0.03,0.1,0.04,0.11
0.10140228271484375,-0.04,0.1,-0.04,0.11
0.11200308799743652,-0.07,0.1,-0.1,0.15
0.12149715423583984,-0.08,0.11,-0.09,0.16
0.1317431926727295,-0.04,0.08,-0.05,0.1
0.1416761875152588,-0.12,0.1,-0.01,0.15
0.15198802947998047,-0.22,0.12,0.07,0.26
0.16183114051818848,-0.26,0.12,0.1,0.3
0.17178726196289062,-0.19,0.14,0.11,0.26
0.18138909339904785,-0.1,0.08,0.09,0.15
0.19170904159545898,-0.09,0.05,0.05,0.11
0.20099616050720215,0.01,0.05,0.03,0.05
0.21227812767028809,0.09,0.05,0.08,0.13
0.2220621109008789,0.1,0.02,0.18,0.2
0.23157215118408203,0.08,0.03,0.18,0.19
0.24237823486328125,0.07,0.09,0.17,0.2
0.25226402282714844,-0.01,0.07,0.07,0.09
0.2628211975097656,0.01,0.06,-0.01,0.06
0.2713751792907715,0.04,0.06,-0.1,0.12
0.28145503997802734,0.05,0.07,-0.25,0.26
0.29155707359313965,0.14,0.05,-0.23,0.27
0.3019089698791504,0.19,0.07,-0.23,0.3
0.3117842674255371,0.12,0.09,-0.25,0.29
0.3217930793762207,0.0,0.1,-0.19,0.21
0.33199119567871094,-0.03,0.08,-0.18,0.19
0.3422811031341553,-0.03,0.05,-0.2,0.2
0.35230398178100586,0.03,0.05,-0.25,0.25
0.3622560501098633,0.09,0.09,-0.29,0.31
0.37236618995666504,0.09,0.09,-0.21,0.24
0.38251304626464844,-0.01,0.08,-0.19,0.2
0.39247703552246094,-0.04,0.1,-0.06,0.12
0.40236902236938477,-0.04,0.11,0.02,0.11
0.4128251075744629,-0.04,0.1,0.09,0.14
0.42321300506591797,-0.11,0.08,0.08,0.15
0.4329521656036377,-0.11,0.11,0.13,0.2
0.44342613220214844,-0.15,0.19,0.11,0.26
0.4536142349243164,-0.19,0.2,0.03,0.27
0.4628772735595703,-0.14,0.21,0.1,0.27
0.4730100631713867,-0.06,0.14,0.11,0.18
0.48299407958984375,-0.17,0.1,0.19,0.27
0.49341297149658203,-0.38,0.04,0.34,0.51
0.5029683113098145,-0.29,0.16,0.42,0.53
0.5132732391357422,-0.29,0.23,0.16,0.4
0.5231881141662598,-0.4,0.28,-0.18,0.52
0.5346369743347168,-0.51,0.31,-0.68,0.9
0.5441250801086426,-0.47,0.02,-1.09,1.18
0.5540730953216553,0.12,0.26,-1.05,1.08
0.5642871856689453,0.6,-0.14,-1.39,1.52
0.5741562843322754,0.65,-0.62,-0.68,1.12
0.5838532447814941,0.33,-0.26,0.12,0.43
0.5944390296936035,0.2,0.25,0.94,0.99
0.60430908203125,0.03,0.52,1.31,1.4
0.6145873069763184,-0.06,0.24,1.41,1.43
0.6246190071105957,-0.25,-0.06,1.28,1.3
0.6346151828765869,0.26,0.05,1.0,1.03
0.6446242332458496,0.56,0.12,0.71,0.91
0.6546921730041504,0.3,0.06,0.7,0.76
0.6647930145263672,-0.04,0.03,0.63,0.63
0.6750702857971191,-0.06,0.0,0.44,0.44
0.6853091716766357,0.02,-0.06,0.19,0.2
0.6949231624603271,0.01,-0.07,0.07,0.09
0.7048592567443848,0.06,0.12,-0.02,0.13
0.715015172958374,0.08,0.22,-0.15,0.27
0.7255041599273682,-0.06,0.18,-0.23,0.29
0.7351531982421875,-0.24,0.14,-0.31,0.41
0.74527907371521,-0.23,0.12,-0.35,0.43
0.7555069923400879,-0.11,0.13,-0.34,0.38
0.7657332420349121,-0.04,0.11,-0.28,0.3
0.7755570411682129,-0.09,0.1,-0.2,0.24
0.7854971885681152,-0.09,0.1,-0.18,0.22
0.7955281734466553,-0.03,0.11,-0.11,0.15
0.805443286895752,-0.01,0.14,-0.16,0.21
0.815852165222168,-0.05,0.19,-0.23,0.3
0.8258321285247803,-0.04,0.16,-0.24,0.29
0.8362112045288086,-0.01,0.13,-0.19,0.23
0.8457522392272949,0.16,0.03,-0.1,0.19
0.855889081954956,0.09,0.0,-0.06,0.1
0.8660171031951904,-0.09,0.12,-0.03,0.15
0.8764142990112305,-0.08,0.15,0.05,0.17
0.8861231803894043,0.05,0.08,0.08,0.12
0.8963031768798828,0.19,0.04,0.09,0.21
0.9061532020568848,0.24,0.05,0.04,0.24
0.9167511463165283,0.22,0.07,-0.01,0.23
0.9262781143188477,0.18,0.06,-0.02,0.19
0.9363760948181152,0.16,0.07,-0.01,0.17
0.9464449882507324,0.11,0.09,0.02,0.14
0.956787109375,0.14,0.09,-0.01,0.16
0.966602087020874,0.23,0.1,-0.04,0.25
0.9766221046447754,0.19,0.06,-0.06,0.2
0.9867000579833984,-0.05,0.05,-0.08,0.1
0.9971721172332764,-0.26,0.14,-0.12,0.31
1.0066521167755127,-0.32,0.2,-0.24,0.44
1.016982078552246,-0.21,0.19,-0.32,0.42
1.0272960662841797,-0.12,0.17,-0.33,0.39
1.0369462966918945,-0.13,0.12,-0.23,0.29
1.0470609664916992,-0.09,0.07,-0.13,0.17
1.0572540760040283,-0.14,0.07,-0.08,0.17
1.0674562454223633,-0.15,0.04,0.01,0.15
1.0771560668945312,-0.11,0.06,0.09,0.15
1.0875372886657715,-0.08,0.06,0.23,0.25
1.0972890853881836,-0.05,0.05,0.33,0.33
1.107694149017334,0.0,0.06,0.36,0.36
1.1176042556762695,0.06,0.04,0.38,0.38
1.1274189949035645,0.1,0.05,0.34,0.35
1.1377711296081543,0.05,0.08,0.28,0.29
1.1477832794189453,-0.04,0.08,0.22,0.23
1.1577930450439453,-0.06,0.09,0.14,0.17
1.1678261756896973,-0.01,0.16,0.01,0.16
1.1781620979309082,-0.02,0.17,-0.1,0.19
1.18743896484375,-0.09,0.11,-0.17,0.22
1.1975111961364746,-0.12,0.14,-0.22,0.28
1.2074711322784424,-0.12,0.13,-0.29,0.33
1.2178101539611816,-0.18,0.09,-0.32,0.37
1.227506160736084,-0.17,0.08,-0.29,0.34
1.2382550239562988,-0.1,0.11,-0.26,0.29
1.2482020854949951,-0.06,0.13,-0.21,0.25
1.2588651180267334,-0.06,0.09,-0.19,0.21
1.2683610916137695,-0.07,0.08,-0.14,0.17
1.2784180641174316,-0.07,0.11,-0.04,0.13
1.2884721755981445,-0.13,0.13,-0.02,0.18
1.299079179763794,-0.15,0.12,0.04,0.19
1.3086881637573242,0.0,0.1,0.05,0.11
1.3187551498413086,0.1,0.06,0.05,0.12
1.3287081718444824,0.21,0.05,-0.14,0.25
1.3405520915985107,0.39,0.01,0.1,0.4
1.3484892845153809,0.01,0.04,0.35,0.35
1.3613462448120117,-0.25,0.15,0.35,0.45
1.3691539764404297,-0.23,0.14,0.48,0.55
1.3793551921844482,-0.23,0.13,0.26,0.37
1.467689037322998,-0.18,0.11,-0.09,0.22
1.4678921699523926,0.0,0.09,-0.15,0.17
1.4680531024932861,-0.05,0.16,-0.15,0.22
1.468183994293213,-0.11,0.16,-0.12,0.22
1.468313217163086,0.06,0.13,-0.04,0.14
1.468440055847168,0.23,0.07,0.05,0.24
1.468569278717041,0.17,0.06,0.13,0.22
1.4687080383300781,0.09,0.05,0.21,0.23
1.4688351154327393,0.09,0.05,0.27,0.28
1.47861909866333,0.03,0.07,0.19,0.2
1.4889380931854248,-0.05,0.09,0.07,0.12
1.4987692832946777,-0.12,0.11,0.02,0.16
1.5085301399230957,-0.16,0.08,0.0,0.17
1.5188980102539062,-0.09,0.09,0.0,0.12
1.5290579795837402,-0.06,0.12,-0.07,0.15
1.539316177368164,-0.06,0.11,-0.05,0.13
1.54939603805542,-0.03,0.13,0.05,0.14
1.5593891143798828,-0.09,0.12,0.06,0.16
1.5695290565490723,-0.08,0.09,0.01,0.12
1.579699993133545,-0.03,0.04,-0.07,0.08
1.589914083480835,0.03,0.09,-0.17,0.19
1.6004390716552734,0.04,0.11,-0.12,0.16
1.6094412803649902,-0.04,0.13,-0.06,0.14
1.620495080947876,-0.1,0.13,0.03,0.16
1.6304640769958496,-0.09,0.09,0.07,0.14
1.6409471035003662,-0.03,0.08,0.05,0.09
1.650780200958252,0.03,0.07,0.02,0.07
1.6607623100280762,0.06,0.09,-0.03,0.11
1.6707510948181152,0.08,0.1,0.0,0.12
1.681307077407837,0.05,0.08,-0.02,0.09
1.690819263458252,0.05,0.07,-0.04,0.09
1.7010271549224854,0.12,0.12,-0.01,0.17
1.7108020782470703,-0.08,0.07,0.03,0.11
1.721323013305664,-0.09,0.1,0.05,0.14
1.731153964996338,-0.04,0.14,0.03,0.14
1.741227149963379,-0.04,0.14,0.05,0.15
1.7511250972747803,0.0,0.08,0.04,0.08
1.7617120742797852,0.13,0.06,0.08,0.16
1.7714362144470215,0.19,0.08,0.07,0.21
1.7816872596740723,0.18,0.07,0.08,0.2
1.7914199829101562,0.2,0.01,0.19,0.27
1.801570177078247,0.13,0.04,0.19,0.23
1.8115251064300537,0.12,0.06,0.11,0.17
1.8297321796417236,0.14,0.09,-0.02,0.16
1.8316941261291504,0.09,0.09,-0.08,0.15
1.8420801162719727,-0.03,0.12,-0.17,0.21
1.851865291595459,-0.06,0.13,-0.18,0.23
1.861126184463501,-0.03,0.15,-0.14,0.2
1.871263027191162,-0.01,0.15,-0.18,0.23
1.8812251091003418,0.04,0.12,-0.15,0.19
1.8921842575073242,0.05,0.07,-0.08,0.11
1.9022932052612305,0.0,0.09,-0.03,0.09
1.9126620292663574,-0.08,0.12,-0.01,0.14
1.9222393035888672,-0.07,0.11,-0.02,0.13
1.932413101196289,0.04,0.08,-0.01,0.09
1.9424362182617188,0.08,0.09,-0.04,0.12
1.9527781009674072,0.08,0.09,0.0,0.12
1.9628081321716309,0.03,0.12,0.08,0.14
1.9756081104278564,0.0,0.13,0.18,0.22
1.983025074005127,-0.01,0.08,0.27,0.28
1.9923090934753418,0.02,0.09,0.18,0.2
2.002120018005371,0.05,0.08,0.06,0.11
2.0119242668151855,0.01,0.09,-0.04,0.09
2.0221619606018066,-0.05,0.09,-0.08,0.13
2.0320820808410645,-0.08,0.11,-0.07,0.15
2.042302131652832,-0.1,0.16,-0.11,0.21
2.0523571968078613,-0.1,0.12,-0.18,0.23
2.0628161430358887,-0.08,0.12,-0.19,0.23
2.072416305541992,-0.08,0.12,-0.08,0.16
2.0826802253723145,0.03,0.05,0.05,0.07
2.0928292274475098,0.01,0.07,0.05,0.08
2.1030471324920654,0.01,0.04,0.14,0.14
2.1126601696014404,0.06,0.06,0.14,0.16
2.1227221488952637,0.03,0.12,0.04,0.13
2.13289213180542,0.01,0.1,0.08,0.12
2.1433751583099365,0.04,0.07,0.08,0.11
2.152984142303467,0.08,0.09,0.06,0.13
2.1631271839141846,0.15,0.06,0.12,0.2
2.1730270385742188,0.08,0.08,0.12,0.16
2.1836061477661133,-0.04,0.1,0.12,0.16
2.1931300163269043,-0.06,0.08,0.08,0.12
2.203444004058838,0.03,0.09,0.01,0.09
2.213226079940796,0.05,0.09,-0.04,0.11
2.2235212326049805,-0.01,0.08,-0.03,0.08
2.23352313041687,-0.11,0.12,-0.07,0.17
2.243649959564209,-0.08,0.12,-0.03,0.14
2.2538862228393555,-0.06,0.13,-0.03,0.14
2.263723134994507,-0.05,0.12,-0.02,0.13
2.2736830711364746,-0.02,0.06,0.02,0.06
2.2838501930236816,0.03,0.07,-0.02,0.07
2.294128179550171,0.05,0.07,0.05,0.09
2.304203987121582,-0.01,0.08,0.05,0.09
2.3140761852264404,-0.09,0.15,0.06,0.18
2.3243722915649414,-0.07,0.12,0.07,0.15
2.3345160484313965,-0.09,0.07,0.05,0.12
2.34450101852417,-0.13,0.06,0.05,0.15
2.354403018951416,-0.06,0.08,-0.03,0.1
2.3647022247314453,0.05,0.1,-0.1,0.15
2.37461519241333,0.08,0.06,-0.05,0.11
2.3847103118896484,0.01,0.1,-0.05,0.11
2.3947181701660156,-0.09,0.12,-0.05,0.15
2.405196189880371,-0.06,0.11,-0.04,0.13
2.4148402214050293,-0.07,0.1,-0.08,0.14
2.4250690937042236,-0.06,0.12,-0.12,0.18
2.435047149658203,0.02,0.09,-0.08,0.12
2.4454569816589355,0.03,0.09,-0.06,0.11
2.4551281929016113,0.01,0.1,-0.01,0.1
2.4651989936828613,-0.04,0.11,0.03,0.12
2.4751851558685303,-0.01,0.1,0.03,0.1
2.4857850074768066,0.07,0.11,0.01,0.13
2.495246171951294,0.11,0.09,-0.02,0.14
2.5054450035095215,0.13,0.06,-0.03,0.14
2.5153441429138184,0.14,0.06,0.0,0.15
2.525778293609619,-0.01,0.1,0.07,0.12
2.5354299545288086,-0.05,0.12,0.11,0.17
2.5459671020507812,0.0,0.07,0.08,0.1
2.555988311767578,0.11,0.07,-0.03,0.13
2.565814971923828,0.15,0.08,-0.05,0.17
2.575843095779419,0.06,0.09,-0.03,0.11
2.586005210876465,-0.02,0.11,0.01,0.11
2.596240997314453,-0.11,0.12,-0.05,0.17
2.605978012084961,-0.1,0.12,-0.09,0.18
2.6159462928771973,-0.06,0.11,-0.15,0.19
2.6262311935424805,-0.02,0.1,-0.13,0.16
2.6363871097564697,-0.03,0.13,-0.09,0.16
2.646419048309326,0.03,0.09,-0.02,0.09
2.6561150550842285,0.04,0.08,0.03,0.09
2.666445255279541,-0.06,0.03,0.11,0.12
2.676786184310913,-0.03,0.04,0.1,0.11
2.686509132385254,0.04,0.1,0.05,0.11
2.696424961090088,-0.06,0.05,0.02,0.08
2.706954002380371,-0.02,0.05,0.04,0.06
2.7167272567749023,0.08,0.04,0.08,0.12
2.726877212524414,0.04,0.06,0.04,0.08
2.7368900775909424,-0.02,0.06,0.05,0.08
2.747570037841797,-0.09,0.08,0.08,0.14
2.757061004638672,-0.04,0.12,0.04,0.13
2.767259120941162,0.12,0.12,0.01,0.17
2.7769532203674316,0.12,0.1,-0.03,0.15
2.7877402305603027,0.0,0.11,-0.11,0.15
2.7972240447998047,0.03,0.16,-0.15,0.22
2.8073220252990723,0.08,0.11,-0.14,0.19
2.817077159881592,0.02,0.12,-0.15,0.19
2.827785015106201,-0.03,0.15,-0.06,0.16
2.8373680114746094,-0.02,0.1,-0.01,0.1
2.8475451469421387,0.0,0.1,-0.02,0.1
2.8574671745300293,0.04,0.11,-0.01,0.11
2.8679730892181396,0.03,0.06,-0.03,0.07
2.8776140213012695,-0.04,0.1,-0.04,0.11
2.887784957885742,-0.04,0.13,0.0,0.13
2.897667169570923,-0.03,0.1,0.03,0.1
2.9081711769104004,-0.03,0.08,0.09,0.12
2.9177560806274414,-0.04,0.08,0.05,0.1
2.9280309677124023,-0.09,0.09,0.06,0.14
2.938279151916504,-0.09,0.09,0.07,0.14
2.9480671882629395,-0.09,0.11,0.05,0.15
2.9580860137939453,-0.16,0.11,0.06,0.2
2.9683432579040527,-0.22,0.16,0.06,0.27
2.978548049926758,-0.16,0.12,0.04,0.2
2.9883933067321777,-0.03,0.07,0.0,0.07
2.998216152191162,0.0,0.08,0.0,0.08
3.0084850788116455,0.02,0.08,0.01,0.08
3.018831253051758,0.07,0.1,0.06,0.13
3.0285983085632324,0.04,0.08,0.1,0.13
3.038609027862549,0.0,0.07,0.14,0.15
3.0489461421966553,-0.07,0.05,0.15,0.17
3.0592522621154785,-0.12,0.06,0.16,0.2
3.0689802169799805,-0.1,0.09,0.17,0.21
3.0792222023010254,-0.05,0.08,0.05,0.1
3.08937931060791,-0.01,0.12,-0.04,0.12
3.099112033843994,0.03,0.13,-0.08,0.15
3.109126091003418,0.07,0.13,-0.07,0.16
3.1193771362304688,0.12,0.15,-0.04,0.19
3.1293671131134033,0.12,0.12,-0.03,0.17
3.1390271186828613,0.01,0.06,-0.02,0.06
3.1494131088256836,-0.02,0.1,-0.02,0.1
3.159646987915039,0.0,0.12,-0.03,0.12
3.1697239875793457,0.04,0.09,-0.02,0.1
3.1794981956481934,0.03,0.12,-0.06,0.13
3.1894302368164062,-0.03,0.12,-0.12,0.17
3.199205160140991,-0.08,0.11,-0.18,0.22
3.21005916595459,-0.07,0.13,-0.17,0.22
3.2196292877197266,-0.11,0.12,-0.13,0.2
3.229612112045288,-0.11,0.11,-0.12,0.19
3.239682197570801,-0.03,0.12,-0.07,0.14
3.24997615814209,0.0,0.08,-0.01,0.08
3.260025978088379,0.0,0.09,0.05,0.1
3.2700581550598145,0.0,0.09,0.06,0.1
3.2803640365600586,-0.02,0.09,0.07,0.11
3.2900540828704834,0.02,0.06,0.11,0.12
3.3001632690429688,0.02,0.09,0.1,0.13
3.3103110790252686,0.03,0.1,0.08,0.13
3.3204450607299805,0.01,0.06,0.08,0.1
3.3305611610412598,-0.05,0.06,0.08,0.11
3.340269088745117,-0.01,0.1,0.03,0.1
3.3505101203918457,0.06,0.11,-0.02,0.12
3.3606863021850586,0.09,0.09,0.02,0.12
3.370756149291992,0.06,0.07,0.02,0.09
3.3806521892547607,0.06,0.09,-0.02,0.1
3.3907461166381836,0.02,0.09,-0.04,0.1
3.4007151126861572,-0.05,0.09,-0.11,0.15
3.4107680320739746,-0.03,0.15,-0.12,0.19
3.4207100868225098,-0.02,0.13,-0.13,0.18
3.4313082695007324,0.04,0.1,-0.15,0.18
3.4408671855926514,0.07,0.08,-0.1,0.14
3.4512081146240234,0.02,0.07,-0.04,0.08
3.4611361026763916,-0.04,0.11,-0.01,0.11
3.4720330238342285,-0.05,0.09,-0.01,0.1
3.4819769859313965,-0.08,0.13,-0.05,0.16
3.491863250732422,-0.07,0.11,-0.04,0.13
3.5027050971984863,-0.07,0.1,-0.01,0.12
3.5125460624694824,-0.07,0.11,0.01,0.13
3.5221099853515625,-0.04,0.11,0.03,0.12
3.532480239868164,-0.05,0.06,0.09,0.11
3.5425262451171875,-0.02,0.06,0.13,0.14
3.552772045135498,-0.01,0.04,0.16,0.16
3.562249183654785,0.0,0.06,0.15,0.16
3.5721681118011475,0.02,0.06,0.13,0.14
3.5822651386260986,0.04,0.04,0.13,0.14
3.592586040496826,0.09,0.07,0.14,0.18
3.6022520065307617,0.1,0.07,0.15,0.19
3.612488269805908,0.13,0.08,0.09,0.17
3.6226701736450195,0.21,0.06,0.08,0.23
3.6326632499694824,0.18,0.05,0.02,0.18
3.6428651809692383,0.06,0.09,-0.04,0.11
3.6527199745178223,-0.05,0.16,-0.1,0.19
3.6630260944366455,-0.05,0.2,-0.21,0.29
3.672736167907715,-0.03,0.19,-0.26,0.32
3.6824851036071777,-0.07,0.13,-0.28,0.31
3.6933701038360596,-0.08,0.12,-0.24,0.27
3.702958106994629,-0.06,0.11,-0.11,0.16
3.7130980491638184,-0.05,0.11,-0.04,0.12
3.7230782508850098,-0.09,0.16,0.04,0.18
3.7337801456451416,-0.25,0.17,0.11,0.32
3.7430121898651123,-0.4,0.18,0.14,0.46
3.752451181411743,-0.47,0.19,0.18,0.53
3.763479232788086,-0.51,0.18,0.19,0.57
3.7738990783691406,-0.49,0.18,0.17,0.54
3.7834830284118652,-0.42,0.16,0.16,0.47
3.7937140464782715,-0.5,0.2,0.12,0.55
3.8035430908203125,-0.67,0.17,0.18,0.71
3.8140649795532227,-0.9,0.11,0.22,0.93
3.8236021995544434,-0.96,0.03,0.26,0.99
3.833834171295166,-0.86,0.03,0.21,0.88
3.8440310955047607,-0.65,0.2,0.04,0.68
3.8542962074279785,-0.61,0.15,-0.18,0.65
3.864086151123047,-0.52,-0.03,-0.26,0.58
3.8740241527557373,-0.48,-0.12,-0.22,0.54
3.8841280937194824,-0.38,0.13,-0.1,0.41
3.894533157348633,-0.37,0.17,-0.19,0.44
3.90415620803833,-0.33,0.08,-0.29,0.44
3.914246082305908,-0.17,-0.07,-0.33,0.37
3.924208164215088,-0.13,0.01,-0.32,0.34
3.934704303741455,-0.29,0.0,-0.43,0.51
3.944324016571045,-0.36,0.15,-0.52,0.65
3.954411029815674,-0.31,0.2,-0.64,0.73
3.964733123779297,-0.56,0.07,-0.82,0.99
3.9745092391967773,-0.17,-0.03,-0.74,0.75
3.984753131866455,0.45,-0.14,-0.8,0.92
3.994680166244507,0.76,-0.07,-0.73,1.05
4.0052032470703125,0.85,-0.05,0.1,0.85
4.015132188796997,0.58,-0.17,0.95,1.12
4.024909019470215,0.12,-0.13,1.62,1.62
4.03506326675415,-0.17,-0.24,2.06,2.08
4.045409202575684,-0.17,-0.41,1.65,1.7
4.055078983306885,-0.25,-0.15,0.81,0.86
4.0650811195373535,0.12,-0.09,0.27,0.3
4.075360298156738,0.19,-0.07,-0.25,0.32
4.085707187652588,-0.01,0.1,-0.36,0.37
4.095849990844727,0.06,0.06,-0.2,0.21
4.105325222015381,0.24,0.2,-0.18,0.36
4.115126132965088,-0.11,0.5,-0.58,0.77
4.125664234161377,-0.68,0.67,-0.93,1.33
4.135828971862793,-0.5,0.32,-0.77,0.97
4.1458821296691895,0.06,0.26,-0.79,0.83
4.15588116645813,0.13,0.22,-0.7,0.74
4.165870189666748,0.12,0.14,-0.47,0.5
4.175547122955322,-0.35,0.12,-0.51,0.63
4.185375213623047,-0.63,0.27,-0.28,0.74
4.195320129394531,-0.45,0.26,-0.26,0.58
4.205089092254639,0.3,0.19,-0.73,0.81
4.216304302215576,0.74,0.05,-1.05,1.28
4.225281238555908,0.57,0.17,-0.77,0.97
4.236626148223877,0.1,0.19,-0.03,0.21
4.246188163757324,-0.2,-0.08,0.57,0.6
4.256281137466431,-0.14,-0.05,0.25,0.29
4.266494274139404,0.44,0.13,0.0,0.45
4.277047157287598,0.64,0.07,0.03,0.64
4.2867231369018555,0.17,0.27,0.03,0.32
4.296898126602173,-0.56,0.5,0.72,1.04
4.306812286376953,-0.28,0.76,1.35,1.57
4.317325115203857,0.45,0.63,1.19,1.41
4.326738119125366,0.96,0.23,0.48,1.09
4.336812973022461,1.17,-0.36,0.36,1.27
4.346835136413574,1.3,-0.97,0.45,1.68
4.35724401473999,0.88,-0.32,0.31,0.98
4.3669352531433105,0.68,0.36,0.73,1.06
4.3770952224731445,0.42,0.2,0.65,0.79
4.386925220489502,0.46,-0.11,-0.07,0.47
4.397513151168823,0.57,-0.4,-0.75,1.02
4.407133102416992,1.01,-0.6,-1.55,1.94
4.417273044586182,1.03,-0.44,-1.99,2.28
4.427203178405762,1.0,-0.22,-1.85,2.11
4.4374001026153564,0.92,0.35,-1.55,1.83
4.447460174560547,0.52,0.51,-0.77,1.05
4.45740008354187,0.29,0.37,-0.3,0.55
4.467935085296631,0.36,-0.03,0.02,0.36
4.4777140617370605,0.77,-0.32,0.54,0.99
4.4877142906188965,0.78,-0.34,1.1,1.39
4.4977312088012695,0.6,-0.67,1.71,1.93
4.508044242858887,0.51,-0.83,1.51,1.79
4.5182411670684814,0.61,-0.68,0.91,1.28
4.528006076812744,0.47,-0.39,0.38,0.71
4.538093090057373,0.46,-0.23,0.19,0.54
4.5485310554504395,0.54,0.19,-0.03,0.57
4.558150291442871,0.5,0.51,0.03,0.71
4.568185091018677,0.37,0.44,0.34,0.66
4.578264236450195,0.16,0.44,0.4,0.61
4.588581085205078,0.25,0.22,0.26,0.42
4.598453044891357,0.3,-0.18,-0.13,0.37
4.608286142349243,0.42,-0.29,-0.22,0.55
4.618181228637695,0.53,-0.21,-0.01,0.57
4.62842321395874,0.55,-0.31,0.25,0.67
4.638615131378174,0.42,-0.46,0.36,0.71
4.648818016052246,0.3,-0.52,0.32,0.68
4.659134149551392,0.31,-0.45,0.48,0.72
4.668834209442139,0.65,-0.42,0.9,1.18
4.678913116455078,0.59,-0.41,0.9,1.15
4.688802242279053,0.27,-0.33,0.72,0.83
4.699355125427246,0.35,-0.33,0.68,0.83
4.709045171737671,0.44,-0.26,0.67,0.84
4.719115257263184,0.45,-0.08,0.52,0.69
4.72901725769043,0.21,-0.02,0.46,0.5
4.739559173583984,0.02,-0.04,0.37,0.37
4.749176979064941,0.06,0.11,0.0,0.12
4.759375095367432,-0.03,0.17,-0.17,0.24
4.769236087799072,-0.01,0.18,-0.11,0.21
4.779824256896973,-0.42,0.35,-0.17,0.57
4.789492130279541,-0.7,0.41,-0.19,0.83
4.7995991706848145,-0.56,0.26,-0.31,0.69
4.809698104858398,-0.35,0.01,-0.33,0.48
4.820017099380493,-0.26,-0.04,-0.13,0.29
4.829626083374023,-0.27,-0.1,0.12,0.31
4.839811086654663,-0.3,-0.15,0.37,0.49
4.8500940799713135,-0.44,-0.06,0.67,0.8
4.860006093978882,-0.21,-0.1,0.92,0.94
4.8698883056640625,0.03,-0.25,1.04,1.07
4.880082130432129,0.11,-0.47,1.17,1.26
4.890375137329102,0.01,-0.43,0.86,0.96
4.900261163711548,-0.08,-0.2,0.65,0.68
4.91008996963501,-0.06,0.04,0.18,0.19
4.920228958129883,-0.2,0.19,-0.15,0.31
4.93057107925415,-0.43,0.27,-0.52,0.72
4.940484046936035,-0.61,0.61,-0.95,1.28
4.950331211090088,-0.45,0.8,-1.15,1.47
4.960651159286499,-0.11,0.81,-1.12,1.38
4.970736026763916,-0.3,0.59,-0.91,1.12
4.980692148208618,-0.66,0.43,-0.76,1.09
4.990629196166992,-0.81,0.37,-0.64,1.09
5.000633239746094,-0.79,0.29,-0.63,1.05
5.010828018188477,-0.75,0.34,-0.78,1.13
5.020891189575195,-0.83,0.38,-0.98,1.33
5.030944108963013,-0.77,0.32,-1.05,1.34
5.041615962982178,-0.46,0.22,-1.11,1.22
5.051339149475098,-0.16,0.23,-1.14,1.17
5.061466217041016,0.06,0.37,-1.06,1.12
5.0713982582092285,-0.02,0.51,-0.95,1.07
5.081932067871094,-0.35,0.54,-0.88,1.09
5.091329097747803,-0.54,0.45,-0.89,1.13
5.101430177688599,-0.44,0.43,-1.13,1.28
5.1113481521606445,-0.37,0.41,-1.43,1.53
5.1218321323394775,-0.65,0.48,-1.58,1.77
5.131460189819336,-0.8,0.53,-1.64,1.9
5.14176607131958,-0.61,0.44,-1.53,1.7
5.151638031005859,-0.18,0.26,-1.34,1.37
5.16212797164917,0.23,0.14,-1.33,1.35
5.171749114990234,0.23,0.15,-1.35,1.37
5.181594133377075,-0.1,0.19,-1.24,1.25
5.191277980804443,-0.33,0.25,-0.96,1.04
5.2013840675354,-0.21,0.4,-0.61,0.75
5.211275100708008,-0.05,0.26,-0.1,0.28
5.222081184387207,-0.15,-0.15,0.35,0.4
5.231363296508789,-0.19,-0.54,0.6,0.82
5.242642164230347,0.08,-0.7,0.86,1.11
5.252270221710205,0.46,-0.46,1.17,1.33
5.262516021728516,0.56,-0.23,1.63,1.73
5.272633075714111,0.7,-0.34,1.97,2.11
5.282401084899902,0.74,-0.53,1.63,1.86
5.292530059814453,0.47,-0.5,1.07,1.27
5.302674293518066,0.23,-0.27,0.86,0.93
5.312851190567017,0.22,-0.1,0.81,0.84
5.322766304016113,0.19,-0.04,0.71,0.73
5.332751274108887,-0.02,-0.04,0.73,0.73
5.343033075332642,-0.14,-0.02,0.6,0.61
5.353119134902954,-0.33,0.12,0.49,0.6
5.362992286682129,-0.3,0.16,0.57,0.66
5.3730010986328125,-0.03,0.2,0.41,0.45
5.38313102722168,-0.05,0.25,0.1,0.27
5.393400192260742,-0.19,0.13,-0.07,0.24
5.403241157531738,-0.08,0.11,-0.27,0.3
5.413208961486816,0.02,0.27,-0.45,0.52
5.4233551025390625,0.07,0.24,-0.45,0.51
5.43321418762207,0.16,0.16,-0.45,0.5
5.443439960479736,0.21,0.15,-0.29,0.38
5.453423976898193,0.18,0.09,0.05,0.2
5.46392297744751,0.15,-0.03,0.29,0.32
5.473536014556885,0.19,0.03,0.35,0.39
5.483713150024414,0.22,0.04,0.43,0.48
5.49389910697937,0.27,-0.04,0.46,0.53
5.504147052764893,0.29,-0.01,0.37,0.47
5.513819217681885,0.23,0.0,0.35,0.41
5.524026155471802,0.21,-0.06,0.42,0.47
5.5346760749816895,0.25,-0.04,0.45,0.51
5.544885158538818,0.26,0.02,0.42,0.49
5.554076194763184,0.25,0.04,0.37,0.44
5.56412410736084,0.22,0.06,0.36,0.42
5.57421612739563,0.09,0.11,0.3,0.33
5.584640026092529,-0.05,0.1,0.36,0.37
5.594442129135132,-0.15,0.1,0.39,0.42
5.604479074478149,-0.27,0.19,0.14,0.35
5.614465236663818,-0.28,0.18,0.03,0.33
5.624546051025391,-0.09,0.16,0.04,0.18
5.634497165679932,0.0,0.21,0.04,0.21
5.6447272300720215,0.0,0.18,0.1,0.2
5.654993057250977,-0.04,0.11,0.13,0.17
5.66483211517334,-0.1,0.07,0.19,0.22
5.674921989440918,-0.16,0.13,0.13,0.24
5.684988975524902,-0.16,0.18,-0.06,0.24
5.695435047149658,-0.01,0.17,-0.06,0.18
5.7049970626831055,0.12,0.13,0.01,0.17
5.7150890827178955,0.14,0.07,0.06,0.16
5.725211143493652,0.12,0.06,0.06,0.14
5.735503196716309,0.06,0.1,0.18,0.21
5.752301216125488,0.0,0.1,0.25,0.26
5.75504207611084,-0.01,0.08,0.2,0.21
5.765510082244873,-0.02,0.09,0.11,0.14
5.775787115097046,0.03,0.08,0.14,0.16
5.785603046417236,0.08,0.1,0.23,0.26
5.7956321239471436,0.04,0.11,0.25,0.27
5.805970191955566,-0.05,0.14,0.2,0.24
5.816504955291748,-0.09,0.16,0.05,0.19
5.826109170913696,-0.1,0.11,-0.04,0.15
5.835950136184692,-0.12,0.17,-0.09,0.22
5.846538066864014,-0.13,0.18,-0.12,0.25
5.8559160232543945,-0.11,0.11,-0.11,0.19
5.866298198699951,-0.05,0.15,-0.17,0.23
5.875967979431152,-0.05,0.13,-0.17,0.21
5.88650107383728,0.0,0.13,-0.14,0.19
5.934880256652832,-0.02,0.15,-0.12,0.19
5.935464143753052,-0.08,0.14,-0.09,0.18
5.935780048370361,-0.04,0.16,-0.01,0.16
5.936053276062012,0.03,0.13,0.13,0.18
5.936351299285889,-0.03,0.07,0.18,0.19
5.94547700881958,-0.07,0.1,0.11,0.16
5.956135272979736,-0.05,0.14,0.02,0.15
5.966426134109497,-0.06,0.14,0.04,0.15
5.976023197174072,-0.03,0.08,0.16,0.18
5.985854148864746,-0.01,0.12,0.12,0.17
5.99586296081543,0.0,0.1,0.04,0.1
6.006165981292725,0.02,0.13,-0.05,0.14
6.017032146453857,0.02,0.14,-0.04,0.14
6.026975154876709,-0.03,0.14,-0.03,0.14
6.03683614730835,-0.05,0.13,0.02,0.14
6.0478291511535645,0.01,0.1,-0.06,0.11
6.057000160217285,0.07,0.1,-0.11,0.16
6.067262172698975,0.08,0.1,-0.07,0.14
6.07715916633606,0.02,0.13,-0.08,0.15
6.0873260498046875,-0.09,0.15,-0.04,0.17
6.096343040466309,-0.08,0.16,-0.13,0.22
6.107402086257935,-0.06,0.18,-0.22,0.29
6.118007183074951,-0.06,0.16,-0.18,0.24
6.127866268157959,-0.03,0.16,-0.2,0.25
6.1374640464782715,0.0,0.2,-0.14,0.24
6.14778208732605,-0.02,0.21,-0.02,0.21
6.158233165740967,-0.05,0.16,0.04,0.17
6.16817307472229,-0.03,0.17,0.05,0.17
6.177365303039551,-0.14,0.05,0.09,0.17
6.187309265136719,-0.15,0.04,0.06,0.16
6.197973251342773,-0.06,0.04,0.15,0.16
6.208124160766602,0.18,0.07,0.28,0.34
6.218228101730347,0.26,0.17,0.23,0.38
6.227955102920532,0.04,0.14,0.17,0.22
6.238473176956177,-0.2,0.09,0.19,0.29
6.2483391761779785,-0.14,0.03,0.13,0.19
6.258195161819458,-0.03,0.13,-0.07,0.15
6.26850700378418,-0.02,0.22,-0.15,0.26
6.278594017028809,-0.04,0.16,-0.13,0.21
6.302038192749023,0.0,0.1,-0.04,0.1
6.302801132202148,0.09,0.05,-0.03,0.1
6.30853009223938,0.17,0.04,0.0,0.17
6.318489074707031,0.12,0.07,-0.1,0.17
6.328294277191162,0.04,0.15,-0.17,0.23
6.338788986206055,0.07,0.16,-0.21,0.27
6.349180221557617,0.08,0.17,-0.35,0.39
6.358817100524902,0.06,0.21,-0.48,0.52
6.369176149368286,0.07,0.16,-0.57,0.59
6.378834247589111,0.12,0.13,-0.66,0.68
6.389392137527466,0.17,0.13,-0.54,0.58
6.399168014526367,0.19,0.1,-0.42,0.47
6.408343076705933,0.15,0.12,-0.36,0.4
6.41850209236145,0.06,0.1,-0.28,0.3
6.4288411140441895,0.03,0.07,-0.34,0.34
6.4428510665893555,0.05,0.12,-0.42,0.43
6.448612213134766,0.02,0.14,-0.4,0.42
6.458984136581421,0.04,0.15,-0.25,0.29
6.468752145767212,0.06,0.14,-0.1,0.18
6.478754043579102,0.06,0.07,-0.01,0.09
6.488978147506714,0.08,0.06,0.08,0.12
6.4991841316223145,0.13,0.04,0.28,0.31
6.5090861320495605,0.05,0.02,0.35,0.35
6.519077301025391,-0.12,0.16,0.44,0.48
6.529076099395752,-0.22,0.14,0.65,0.7
6.539354085922241,-0.28,0.06,0.68,0.73
6.5498480796813965,-0.29,0.09,0.58,0.65
6.559719085693359,-0.22,0.08,0.54,0.58
6.569899082183838,-0.13,0.05,0.56,0.57
6.580228090286255,-0.13,0.06,0.47,0.49
6.58994197845459,-0.17,0.11,0.34,0.39
6.599713087081909,-0.19,0.13,0.35,0.41
6.6098833084106445,-0.25,0.08,0.43,0.5
6.620108127593994,-0.27,0.08,0.44,0.52
6.629930019378662,-0.2,0.1,0.41,0.46
6.639772176742554,-0.13,0.1,0.38,0.41
6.650093078613281,-0.04,0.1,0.31,0.32
6.660085201263428,-0.02,0.09,0.29,0.3
6.670185089111328,-0.12,0.05,0.32,0.34
6.680177211761475,-0.24,0.09,0.21,0.33
6.690580129623413,-0.36,0.21,-0.08,0.42
6.70024299621582,-0.33,0.29,-0.38,0.58
6.710559129714966,-0.03,0.23,-0.48,0.53
6.720308303833008,0.21,0.14,-0.4,0.47
6.731043100357056,0.05,0.23,-0.42,0.48
6.74038028717041,-0.37,0.38,-0.47,0.7
6.750699043273926,-0.65,0.36,-0.36,0.82
6.7608301639556885,-0.32,0.29,-0.46,0.63
6.7710771560668945,0.29,0.25,-0.76,0.85
6.78075909614563,0.38,0.2,-0.92,1.01
6.790856122970581,0.19,0.16,-0.89,0.92
6.800901174545288,0.14,0.16,-0.75,0.77
6.811401128768921,0.07,0.2,-0.61,0.64
6.820919990539551,-0.06,0.24,-0.6,0.64
6.831221103668213,-0.05,0.15,-0.56,0.58
6.840999126434326,0.13,0.03,-0.45,0.46
6.85129714012146,0.14,0.11,-0.31,0.35
6.861302137374878,0.06,0.18,-0.02,0.19
6.871382236480713,0.02,0.15,0.16,0.22
6.881721019744873,0.09,0.07,0.27,0.29
6.891477108001709,0.27,-0.01,0.26,0.37
6.901503086090088,0.21,0.01,0.27,0.34
6.911710262298584,0.1,0.07,0.31,0.33
6.921910285949707,0.07,0.01,0.35,0.35
6.931687116622925,0.19,-0.09,0.4,0.45
6.941557168960571,0.33,-0.17,0.5,0.62
6.951817989349365,0.44,-0.15,0.68,0.82
6.962061166763306,0.38,-0.17,0.68,0.79
6.971944093704224,0.07,-0.04,0.36,0.36
6.981996059417725,-0.18,0.11,0.19,0.28
6.9924211502075195,0.0,0.13,0.13,0.18
7.002621173858643,0.12,0.16,-0.09,0.21
7.012416124343872,-0.02,0.21,0.01,0.21
7.022503137588501,-0.21,0.12,0.15,0.28
7.032621145248413,-0.25,0.09,0.25,0.36
7.042549133300781,-0.22,0.08,0.22,0.32
7.0527873039245605,-0.21,0.16,0.01,0.26
7.062613010406494,-0.24,0.19,-0.11,0.32
7.0731892585754395,-0.28,0.16,-0.17,0.36
7.082756042480469,-0.22,0.17,-0.29,0.4
7.092957019805908,-0.13,0.23,-0.28,0.38
7.102969169616699,-0.18,0.21,-0.08,0.28
7.113451957702637,-0.33,0.21,0.07,0.39
7.1230082511901855,-0.48,0.22,0.08,0.53
7.1331751346588135,-0.57,0.26,-0.01,0.62
7.143259048461914,-0.36,0.23,-0.24,0.49
7.153662204742432,-0.05,0.24,-0.41,0.47
7.163346290588379,0.09,0.19,-0.31,0.37
7.173454284667969,0.18,0.11,-0.04,0.21
7.183541297912598,0.19,0.06,0.29,0.35
7.19368314743042,0.07,-0.05,0.51,0.51
7.2031590938568115,0.01,-0.05,0.48,0.48
7.2138471603393555,-0.01,-0.03,0.4,0.4
7.223592281341553,0.03,0.06,0.09,0.11
7.233612060546875,0.03,0.2,-0.28,0.34
7.243666172027588,0.05,0.24,-0.4,0.46
7.253896236419678,0.08,0.18,-0.37,0.41
7.2642502784729,0.09,0.16,-0.3,0.35
7.274046182632446,0.05,0.16,-0.2,0.26
7.284003257751465,-0.07,0.16,-0.08,0.19
7.294133186340332,-0.11,0.12,-0.02,0.16
7.304627180099487,-0.05,0.08,-0.16,0.18
7.3144612312316895,0.0,0.15,-0.37,0.39
7.324568271636963,0.03,0.24,-0.46,0.51
7.33473014831543,0.08,0.21,-0.55,0.59
7.345282077789307,0.05,0.27,-0.61,0.66
7.354811191558838,-0.04,0.3,-0.42,0.51
7.36469030380249,-0.11,0.18,-0.19,0.28
7.374693155288696,-0.05,0.08,-0.14,0.16
7.384947299957275,0.01,0.08,-0.21,0.22
7.394925117492676,0.06,0.15,-0.21,0.26
7.404864311218262,0.12,0.13,-0.17,0.24
7.414906978607178,0.11,0.15,-0.27,0.32
7.4250640869140625,0.11,0.18,-0.32,0.38
7.43503999710083,0.13,0.13,-0.28,0.33
7.4450061321258545,0.2,0.05,-0.2,0.28
7.455240249633789,0.21,0.07,-0.17,0.27
7.465120077133179,0.15,0.09,-0.08,0.19
7.475228309631348,0.13,0.13,0.1,0.2
7.485211133956909,0.16,0.08,0.22,0.28
7.49562406539917,0.12,0.03,0.2,0.23
7.5054802894592285,0.11,0.04,0.12,0.16
7.515711307525635,0.13,0.06,0.07,0.15
7.525467157363892,0.17,0.02,0.06,0.18
7.53602409362793,0.2,0.06,0.08,0.22
7.5455522537231445,0.2,0.1,0.19,0.29
7.55587911605835,0.12,0.01,0.29,0.31
7.56662917137146,0.04,-0.03,0.27,0.27
7.576196193695068,-0.02,0.02,0.22,0.22
7.585860252380371,-0.06,0.09,0.19,0.21
7.595936298370361,-0.07,0.14,0.24,0.28
7.606069087982178,-0.05,0.1,0.31,0.32
7.616436004638672,-0.04,0.06,0.33,0.33
7.625990152359009,0.04,0.01,0.38,0.38
7.636245250701904,0.11,-0.03,0.41,0.42
7.646156311035156,0.09,0.01,0.4,0.41
7.656687259674072,-0.05,0.07,0.33,0.34
7.666352272033691,-0.15,0.1,0.33,0.37
7.676407098770142,-0.09,0.07,0.34,0.35
7.686443090438843,0.01,0.03,0.34,0.34
7.696604251861572,0.03,0.06,0.35,0.35
7.706671237945557,-0.03,0.05,0.4,0.4
7.716569185256958,-0.12,0.03,0.37,0.39
7.7269861698150635,-0.23,0.07,0.13,0.27
7.736749172210693,-0.17,0.17,0.25,0.34
7.7466771602630615,-0.2,0.15,0.22,0.33
7.756842136383057,-0.14,0.06,0.13,0.2
7.767251014709473,0.01,0.08,0.26,0.27
7.777011156082153,0.03,0.09,0.23,0.24
7.787103176116943,-0.01,0.06,0.22,0.22
7.7971510887146,-0.14,0.08,0.15,0.22
7.807567119598389,-0.15,0.14,0.0,0.2
7.817302227020264,-0.16,0.18,-0.16,0.28
7.82720422744751,-0.15,0.23,-0.13,0.3
7.837743282318115,-0.12,0.17,-0.01,0.2
7.847678184509277,-0.06,0.09,0.04,0.11
7.85786509513855,0.01,0.04,0.03,0.05
7.868093967437744,0.04,0.1,0.04,0.11
7.878856182098389,0.01,0.12,0.11,0.16
7.888138294219971,-0.06,0.11,0.18,0.21
7.898256301879883,-0.09,0.07,0.17,0.2
7.908198118209839,-0.04,0.1,0.04,0.11
7.918856143951416,0.02,0.13,-0.11,0.17
7.928454160690308,0.0,0.15,-0.23,0.27
7.938449144363403,-0.02,0.2,-0.19,0.27
7.94840407371521,0.04,0.17,-0.04,0.17
7.959006309509277,0.13,0.08,0.04,0.15
7.96854829788208,0.15,0.08,0.11,0.2
7.978804111480713,0.09,0.08,0.23,0.25
7.988653182983398,0.08,0.03,0.34,0.35
7.999151229858398,0.09,0.0,0.35,0.36
8.008828163146973,0.09,0.01,0.25,0.26
8.018845081329346,0.12,0.07,0.17,0.21
8.029153108596802,0.1,0.09,0.11,0.17
8.039364099502563,0.03,0.14,0.02,0.14
8.049020290374756,-0.01,0.18,0.0,0.18
8.059432983398438,-0.01,0.13,0.0,0.13
8.069703102111816,0.04,0.1,0.03,0.11
8.079963207244873,0.13,0.06,0.15,0.2
8.08964204788208,0.13,0.01,0.22,0.25
8.099773168563843,0.05,0.06,0.19,0.2
8.110076189041138,0.02,0.09,0.17,0.19
8.120054244995117,0.0,0.12,0.06,0.13
8.129690170288086,0.01,0.16,-0.06,0.17
8.139600276947021,0.07,0.13,-0.11,0.18
8.15042495727539,0.1,0.12,-0.16,0.22
8.159710168838501,0.09,0.11,-0.14,0.19
8.169739246368408,0.11,0.11,-0.04,0.16
8.179196119308472,0.06,0.09,0.01,0.1
8.189707279205322,-0.02,0.12,-0.06,0.13
8.19937801361084,-0.05,0.15,-0.04,0.16
8.209597110748291,-0.01,0.12,-0.01,0.12
8.22028112411499,0.04,0.11,-0.08,0.14
8.22977614402771,0.13,0.11,-0.11,0.2
8.24029016494751,0.14,0.1,-0.08,0.18
8.250213146209717,0.1,0.12,-0.03,0.15
8.260538101196289,0.04,0.11,-0.04,0.12
8.27066707611084,-0.04,0.13,-0.02,0.13
8.280415058135986,-0.09,0.14,0.03,0.16
8.290451049804688,-0.01,0.13,0.06,0.14
8.300810098648071,0.07,0.08,0.06,0.12
8.310644149780273,0.03,0.08,0.03,0.09
8.320731163024902,0.0,0.12,0.01,0.12
8.330965995788574,0.02,0.1,-0.01,0.1
8.341219186782837,0.07,0.1,-0.05,0.13
8.350830078125,0.08,0.13,-0.06,0.16
8.360973119735718,0.09,0.12,0.01,0.15
8.370915174484253,0.08,0.07,0.06,0.12
8.381439208984375,0.06,0.08,0.11,0.14
8.391107082366943,0.01,0.06,0.24,0.24
8.401167154312134,-0.07,0.05,0.27,0.28
8.41123628616333,-0.09,0.11,0.14,0.19
8.421751976013184,-0.06,0.13,-0.09,0.16
8.431259155273438,-0.13,0.15,-0.24,0.31
8.44140100479126,-0.23,0.27,-0.3,0.46
8.451700210571289,-0.3,0.29,-0.43,0.59
8.46216630935669,-0.24,0.24,-0.42,0.53
8.471494197845459,-0.08,0.2,-0.28,0.35
8.481719017028809,0.05,0.14,-0.21,0.25
8.492012977600098,0.06,0.1,-0.11,0.16
8.501710176467896,0.01,0.06,0.02,0.06
8.511884212493896,-0.01,0.04,0.09,0.09
8.521896123886108,0.01,0.08,0.1,0.12
8.532227039337158,0.01,0.12,0.11,0.16
8.541954040527344,0.06,0.12,0.09,0.16
8.552200078964233,0.09,0.09,0.14,0.18
8.562376976013184,0.06,0.05,0.21,0.22
8.57239818572998,0.04,0.02,0.23,0.23
8.582702159881592,0.06,0.07,0.16,0.18
8.592682123184204,0.07,0.1,0.11,0.16
8.602370262145996,0.02,0.1,0.14,0.17
8.612876176834106,0.02,0.08,0.19,0.2
8.62251615524292,0.07,0.06,0.22,0.23
8.632424116134644,0.14,0.08,0.19,0.24
8.64260196685791,0.11,0.08,0.15,0.2
8.652606964111328,0.02,0.06,0.11,0.12
8.663016080856323,-0.04,0.1,-0.03,0.11
8.672727108001709,-0.1,0.23,-0.21,0.32
8.683587074279785,-0.25,0.25,-0.38,0.51
8.692889213562012,-0.36,0.24,-0.42,0.6
8.703005075454712,-0.25,0.2,-0.27,0.41
8.713194131851196,-0.17,0.12,-0.15,0.25
8.723604202270508,-0.19,0.13,-0.17,0.28
8.733436107635498,-0.24,0.17,-0.16,0.33
8.74316120147705,-0.31,0.17,-0.12,0.37
8.753275156021118,-0.35,0.21,-0.15,0.43
8.763695240020752,-0.29,0.2,-0.13,0.37
8.773344039916992,-0.21,0.15,-0.01,0.25
8.783375263214111,-0.11,0.11,0.1,0.18
8.793394088745117,-0.02,0.04,0.24,0.24
8.803914070129395,0.01,0.04,0.36,0.36
8.813563108444214,0.01,0.04,0.39,0.39
8.823928117752075,-0.05,0.06,0.29,0.3
8.834444046020508,-0.08,0.11,0.2,0.24
8.844290256500244,-0.08,0.09,0.14,0.18
8.85403299331665,-0.05,0.09,0.12,0.15
8.864408016204834,0.02,0.11,0.11,0.15
8.87461519241333,0.1,0.1,0.09,0.16
8.884136199951172,0.11,0.09,0.12,0.18
8.894204139709473,0.05,0.05,0.21,0.22
8.904219150543213,0.0,0.04,0.21,0.21
8.91453504562378,-0.05,0.1,0.14,0.17
8.924329280853271,-0.02,0.07,0.12,0.14
8.93441104888916,0.04,0.09,0.04,0.1
8.94441819190979,0.06,0.1,-0.02,0.11
8.95481014251709,0.08,0.09,-0.02,0.12
8.964759111404419,0.1,0.11,0.0,0.14
8.974516153335571,0.14,0.11,0.01,0.17
8.984716176986694,0.13,0.12,-0.02,0.17
8.994924068450928,0.07,0.11,0.0,0.13
9.004745960235596,0.02,0.08,0.05,0.09
9.014930248260498,0.0,0.09,0.05,0.1
9.025018215179443,-0.09,0.12,-0.05,0.15
9.034983158111572,-0.14,0.21,-0.16,0.29
9.045151233673096,-0.17,0.2,-0.18,0.31
9.055052280426025,-0.16,0.22,-0.19,0.33
9.065814971923828,-0.07,0.16,-0.15,0.23
9.075212001800537,-0.01,0.13,-0.06,0.14
9.085245132446289,-0.02,0.14,0.0,0.14
9.095808982849121,-0.01,0.08,0.08,0.11
9.105885982513428,0.02,0.06,0.09,0.11
9.115519046783447,-0.01,0.09,0.05,0.1
9.125679016113281,-0.03,0.13,0.04,0.13
9.135632991790771,-0.01,0.14,0.06,0.15
9.146337032318115,0.06,0.13,0.12,0.18
9.156160116195679,0.06,0.08,0.14,0.17
9.165822982788086,0.02,0.03,0.17,0.17
9.175830125808716,0.02,0.01,0.14,0.14
9.185886144638062,0.03,0.08,0.07,0.11
9.195298194885254,0.07,0.07,0.09,0.13
9.205479145050049,0.02,0.09,0.04,0.1
9.21567416191101,-0.04,0.1,0.04,0.11
9.225887298583984,-0.05,0.08,0.06,0.11
9.236270189285278,-0.05,0.11,0.04,0.12
9.246438980102539,-0.08,0.13,-0.03,0.15
9.256591081619263,-0.07,0.08,0.0,0.1
9.266412258148193,-0.03,0.11,-0.01,0.11
9.276385307312012,-0.02,0.17,-0.01,0.17
9.286463260650635,-0.02,0.19,0.02,0.19
9.296857118606567,-0.03,0.14,0.06,0.15
9.306547164916992,-0.04,0.1,0.03,0.11
9.316734075546265,-0.05,0.12,0.01,0.13
9.326699256896973,-0.06,0.13,-0.03,0.14
9.337018013000488,-0.05,0.14,-0.06,0.16
9.346868991851807,0.01,0.16,0.0,0.16
9.356832027435303,0.06,0.12,0.06,0.14
9.366916179656982,0.03,0.08,0.09,0.12
9.376857280731201,-0.06,0.04,0.05,0.08
9.387227058410645,-0.18,0.16,-0.01,0.24
9.397030115127563,-0.24,0.22,-0.05,0.32
9.40724515914917,-0.27,0.28,-0.22,0.44
9.417210102081299,-0.12,0.25,-0.33,0.43
9.427391052246094,0.04,0.18,-0.24,0.3
9.437266111373901,0.12,0.13,-0.08,0.19
9.447857141494751,0.16,0.04,0.09,0.18
9.457365989685059,0.14,0.0,0.2,0.24
9.467511177062988,0.08,0.03,0.25,0.26
9.477457046508789,0.06,0.05,0.22,0.23
9.488129138946533,0.11,0.02,0.14,0.17
9.49763822555542,0.09,0.09,0.07,0.14
9.507776260375977,0.03,0.11,0.02,0.11
9.517833232879639,-0.03,0.14,-0.02,0.14
9.528354167938232,-0.03,0.13,-0.02,0.13
9.537829160690308,0.01,0.14,0.0,0.14
9.54807996749878,0.0,0.1,0.07,0.12
9.558053970336914,-0.02,0.08,0.12,0.14
9.568493127822876,-0.03,0.06,0.15,0.16
9.57822322845459,-0.02,0.1,0.13,0.16
9.588393211364746,0.02,0.09,0.05,0.1
9.59873628616333,0.01,0.11,-0.03,0.11
9.609321117401123,0.0,0.14,-0.03,0.14
9.61879301071167,0.02,0.12,-0.01,0.12
9.62914228439331,-0.02,0.1,0.03,0.1
9.639167308807373,-0.07,0.12,0.03,0.14
9.64868712425232,-0.06,0.11,0.03,0.12
9.65853214263916,-0.02,0.12,0.04,0.12
9.668727159500122,-0.05,0.11,0.02,0.12
9.679464101791382,-0.09,0.14,-0.02,0.16
9.688858985900879,-0.07,0.16,-0.01,0.17
9.698915004730225,-0.05,0.15,-0.01,0.15
9.708996295928955,-0.03,0.16,0.02,0.16
9.719350099563599,0.01,0.11,0.06,0.12
9.729344129562378,0.04,0.1,0.04,0.11
9.739124298095703,0.01,0.09,0.0,0.09
9.749221086502075,-0.08,0.09,-0.04,0.12
9.759222030639648,-0.07,0.12,-0.12,0.18
9.76940107345581,-0.05,0.13,-0.23,0.26
9.779574155807495,-0.11,0.17,-0.24,0.31
9.78935718536377,-0.12,0.17,-0.18,0.27
9.79944896697998,-0.06,0.13,0.02,0.14
9.809580087661743,0.04,0.09,0.13,0.16
9.81967306137085,0.07,0.11,0.14,0.19
9.830275058746338,0.05,0.06,0.16,0.17
9.839713096618652,0.04,0.07,0.11,0.13
9.849898099899292,0.07,0.1,0.03,0.12
9.859451293945312,0.07,0.12,-0.04,0.14
9.870343208312988,-0.02,0.14,-0.08,0.16
9.880218029022217,-0.04,0.13,-0.03,0.13
9.890129089355469,0.01,0.11,-0.02,0.11
9.900174140930176,0.02,0.11,0.05,0.12
9.910552978515625,0.01,0.09,0.15,0.17
9.920223236083984,0.03,0.05,0.17,0.17
9.930449962615967,0.04,0.06,0.14,0.15
9.94075608253479,0.03,0.08,0.09,0.12
9.950436115264893,0.02,0.1,0.03,0.1
9.960355281829834,0.04,0.1,0.01,0.1
9.970510959625244,0.02,0.13,-0.03,0.13
9.980926990509033,-0.01,0.13,0.0,0.13
9.990718126296997,-0.04,0.11,0.04,0.12
10.000710010528564,-0.04,0.13,0.05,0.14
10.010785102844238,-0.03,0.09,0.08,0.12
10.021197080612183,-0.02,0.06,0.05,0.08
10.03101396560669,0.0,0.11,-0.05,0.12
10.041013240814209,-0.05,0.12,-0.11,0.17
10.051074028015137,-0.04,0.17,-0.17,0.24
10.061322212219238,-0.02,0.17,-0.16,0.23
10.071390151977539,-0.04,0.15,-0.07,0.17
10.081243991851807,-0.01,0.12,-0.02,0.12
10.09126329421997,-0.02,0.09,-0.02,0.09
10.101352214813232,-0.03,0.11,-0.03,0.11
10.111513137817383,-0.04,0.09,0.01,0.09
10.121531009674072,-0.06,0.1,-0.02,0.11
10.131970167160034,-0.06,0.16,-0.09,0.19
10.141564130783081,-0.01,0.19,-0.16,0.24
10.1516752243042,-0.02,0.18,-0.19,0.26
10.161598205566406,-0.08,0.17,-0.13,0.22
10.172194957733154,-0.08,0.09,-0.03,0.12
10.181450128555298,-0.04,0.1,-0.04,0.11
10.191363096237183,-0.02,0.16,-0.02,0.16
10.20117712020874,-0.05,0.14,0.03,0.15
10.21175217628479,-0.03,0.13,0.03,0.13
10.221569061279297,-0.03,0.1,0.04,0.11
10.231911182403564,-0.02,0.1,0.05,0.11
10.242221117019653,0.02,0.1,0.06,0.11
10.252280235290527,0.03,0.05,0.09,0.1
10.262275218963623,-0.01,0.06,0.1,0.11
10.272327184677124,-0.01,0.11,0.15,0.18
10.282891273498535,0.0,0.1,0.22,0.24
10.292487144470215,0.01,0.08,0.23,0.24
10.302590131759644,0.04,0.08,0.13,0.15
10.320785999298096,0.05,0.07,0.16,0.18
10.323496103286743,0.03,0.08,0.14,0.16
10.332329273223877,-0.02,0.08,0.12,0.14
10.3434419631958,-0.07,0.1,0.12,0.17
10.35329818725586,-0.03,0.1,0.15,0.18
10.36640214920044,0.01,0.09,0.2,0.21
10.373475074768066,-0.03,0.11,0.24,0.26
10.383511066436768,-0.06,0.09,0.21,0.23
10.39375925064087,-0.01,0.08,0.19,0.2
10.403828144073486,-0.03,0.08,0.22,0.23
10.42082405090332,-0.11,0.1,0.06,0.16
10.42818021774292,-0.04,0.14,-0.18,0.23
10.434385299682617,0.07,0.09,-0.11,0.15
10.444647073745728,0.04,0.12,-0.04,0.13
10.453772068023682,-0.06,0.13,-0.04,0.14
10.492797136306763,-0.06,0.13,0.02,0.14
10.494173049926758,0.04,0.09,0.08,0.12
10.495505094528198,0.08,0.07,0.04,0.11
10.49678111076355,0.01,0.14,0.0,0.14
10.503488063812256,-0.08,0.13,0.05,0.16
10.519782066345215,-0.05,0.09,0.07,0.12
10.523773193359375,0.01,0.1,0.06,0.11
10.533874034881592,0.03,0.11,0.08,0.13
10.543974161148071,0.02,0.09,0.13,0.15
10.55440616607666,0.01,0.07,0.17,0.18
10.59487009048462,0.0,0.04,0.2,0.2
10.596354961395264,-0.05,0.08,0.16,0.18
10.597419261932373,-0.09,0.14,0.09,0.18
10.600874185562134,-0.07,0.14,0.08,0.17
10.620907306671143,0.02,0.1,0.08,0.12
10.622601985931396,0.04,0.05,0.09,0.11
10.632723093032837,0.03,0.04,0.11,0.12
10.63526201248169,0.01,0.08,-0.01,0.08
10.650130271911621,0.05,0.14,-0.33,0.36
10.654458999633789,-0.01,0.22,-0.46,0.51
10.685564994812012,-0.28,0.15,0.0,0.31
10.686880111694336,-0.66,0.08,0.75,1.0
10.687982082366943,-0.76,0.26,0.71,1.07
10.704125165939331,-0.24,0.32,-0.32,0.51
10.705412149429321,0.5,0.2,-1.03,1.16
10.718332290649414,0.71,0.19,-0.42,0.84
10.724506139755249,0.39,0.06,0.62,0.73
10.7350492477417,-0.06,-0.11,1.0,1.0
10.74571418762207,-0.12,-0.13,0.98,0.99
10.755330085754395,0.19,-0.19,1.02,1.05
10.787007093429565,0.52,-0.23,1.02,1.16
10.788877964019775,0.64,-0.12,0.91,1.11
10.789945125579834,0.54,-0.1,0.92,1.07
10.803593158721924,0.38,-0.18,1.07,1.14
10.805371284484863,0.37,-0.17,1.12,1.19
10.817850112915039,0.33,-0.15,1.17,1.22
10.825753211975098,0.22,-0.22,1.21,1.24
10.835796117782593,0.1,-0.25,1.06,1.09
10.84573221206665,-0.02,-0.23,0.88,0.9
10.85586404800415,-0.04,-0.16,0.72,0.73
10.882819175720215,-0.01,-0.09,0.66,0.66
10.885004997253418,0.12,-0.1,0.58,0.6
10.886658191680908,0.28,-0.15,0.57,0.65
10.905683040618896,0.33,-0.25,0.71,0.82
10.908147096633911,0.38,-0.32,1.0,1.11
10.917590141296387,0.46,-0.65,1.55,1.74
10.926321983337402,0.28,-0.96,2.02,2.25
10.936775207519531,0.03,-1.12,2.21,2.47
10.946823120117188,-0.39,-1.02,2.01,2.28
10.956578254699707,-0.73,-0.58,1.58,1.83
10.984018087387085,-0.82,-0.09,1.0,1.29
10.986118078231812,-1.41,0.62,0.12,1.54
10.987771987915039,-2.48,1.93,-0.88,3.26
11.006174087524414,-1.39,2.39,-1.71,3.25
11.008624076843262,1.04,1.07,-2.53,2.93
11.016950130462646,0.89,0.01,-2.06,2.24
11.026652097702026,-0.54,-0.8,-0.16,0.97
11.03695011138916,-1.03,-1.13,1.04,1.84
11.047224044799805,-0.6,-0.9,0.83,1.36
11.057172298431396,-0.31,-0.39,0.05,0.5
11.085752010345459,-0.29,-0.03,-0.14,0.32
11.087898254394531,-0.17,0.07,0.17,0.25
11.089502096176147,-0.25,-0.17,0.34,0.45
11.105110168457031,-0.55,-0.11,-0.21,0.59
11.107738018035889,-0.19,0.05,-0.88,0.9
11.11807918548584,-0.22,-0.09,-1.24,1.26
11.127737998962402,-0.81,-0.06,-0.75,1.1
11.13774299621582,-0.15,-0.41,0.26,0.5
11.147840023040771,0.54,-0.28,0.1,0.61
11.158037185668945,0.51,0.0,0.0,0.51
11.191831111907959,0.26,-0.02,0.05,0.26
11.19389820098877,0.32,0.1,-0.16,0.37
11.195470094680786,0.16,0.35,-0.33,0.5
11.20183515548706,-0.29,0.21,0.05,0.36
11.207539081573486,-0.07,-0.23,0.27,0.36
11.218018054962158,0.18,0.06,-0.63,0.65
11.227931022644043,0.13,0.56,-1.64,1.73
11.238829135894775,0.1,0.55,-1.89,1.97
11.247904300689697,0.1,0.34,-1.87,1.9
11.258349180221558,0.32,0.25,-1.78,1.82
11.285186290740967,0.54,0.34,-1.16,1.32
11.2882661819458,0.73,0.29,-0.45,0.9
11.289903163909912,0.49,0.05,-0.1,0.5
11.305317163467407,0.43,-0.09,0.5,0.66
11.308195114135742,0.51,-0.01,0.88,1.01
11.318850994110107,0.38,0.0,0.83,0.91
11.328769207000732,0.4,0.04,0.85,0.94
11.3388090133667,0.6,-0.04,0.81,1.0
11.34938907623291,1.01,0.0,0.6,1.17
11.359585285186768,1.36,0.06,-0.26,1.38
11.38801622390747,1.1,0.2,-0.63,1.28
11.390801191329956,1.12,0.13,-0.51,1.23
11.392953157424927,1.25,0.04,-0.54,1.36
11.403176307678223,0.85,0.3,-0.97,1.32
11.408953189849854,0.36,0.38,-1.08,1.2
11.41941499710083,0.91,0.1,-0.57,1.07
11.429684162139893,1.35,-0.29,-0.61,1.5
11.439434051513672,0.71,-0.18,-0.95,1.19
11.450078010559082,0.32,0.02,-0.87,0.92
11.460126161575317,0.4,0.13,-1.03,1.11
11.48749828338623,0.6,0.08,-1.23,1.37
11.490450143814087,0.43,-0.03,-1.46,1.52
11.49268627166748,0.12,-0.12,-1.58,1.58
11.504065036773682,0.24,-0.07,-1.52,1.54
11.509809017181396,0.51,0.2,-1.3,1.41
11.519833087921143,0.64,0.25,-1.24,1.41
11.530251026153564,0.41,0.17,-1.1,1.18
11.539980173110962,0.1,0.03,-0.6,0.6
11.550704956054688,-0.05,-0.12,-0.2,0.23
11.560478210449219,-0.02,-0.08,-0.33,0.34
11.589442253112793,-0.15,0.17,-0.64,0.67
11.592292308807373,0.0,0.29,-0.42,0.51
11.59449815750122,0.33,0.17,-0.22,0.43
11.60384225845337,0.28,-0.14,-0.19,0.36
11.61013412475586,0.2,-0.05,-0.24,0.31
11.620964050292969,0.13,0.06,-0.1,0.17
11.630999088287354,-0.25,0.14,0.16,0.32
11.641040086746216,-0.3,0.13,0.42,0.53
11.65069317817688,0.32,-0.06,0.62,0.7
11.661372184753418,1.1,-0.11,0.61,1.26
11.69020414352417,1.09,-0.4,0.71,1.36
11.6930832862854,0.04,-0.43,0.98,1.07
11.695165157318115,-0.63,0.11,0.51,0.81
11.70230507850647,-0.21,0.47,0.12,0.52
11.710531234741211,0.54,0.46,-0.29,0.76
11.720981121063232,0.83,0.21,-0.33,0.91
11.731417179107666,0.8,0.06,0.32,0.86
11.741542100906372,0.92,-0.06,0.29,0.96
11.751535177230835,0.69,0.0,0.09,0.69
11.76164722442627,0.23,0.21,0.45,0.54
11.790869235992432,0.27,0.24,0.74,0.82
11.7933349609375,0.16,-0.14,1.28,1.29
11.79500412940979,-0.36,-0.36,1.82,1.88
11.802463054656982,-0.47,-0.22,1.59,1.67
11.811406135559082,-0.1,0.15,0.85,0.86
11.821742057800293,0.02,0.34,0.63,0.71
11.831894159317017,-0.08,0.17,0.95,0.96
11.841768264770508,-0.24,-0.24,1.24,1.28
11.852415084838867,-0.38,-0.33,1.25,1.34
11.86203908920288,-0.45,-0.41,0.53,0.8
11.890328168869019,-0.68,-0.15,-0.39,0.79
11.892535209655762,-0.83,0.18,-0.73,1.11
11.894227027893066,-0.91,0.3,-0.7,1.18
11.902579307556152,-0.8,0.22,-0.88,1.2
11.912060260772705,-0.68,0.0,-0.46,0.82
11.922059059143066,-0.78,-0.14,0.09,0.79
11.93294095993042,-1.34,0.15,0.33,1.38
11.942419052124023,-1.73,0.37,0.31,1.79
11.952410221099854,-1.64,0.27,0.23,1.67
11.962870121002197,-0.93,0.15,0.26,0.97
11.991356134414673,-0.04,-0.08,0.39,0.4
11.994190216064453,0.01,-0.23,-0.19,0.29
11.995933055877686,-1.21,0.18,0.04,1.22
12.003118991851807,-2.22,0.36,0.95,2.44
12.012449264526367,-1.94,-0.04,0.8,2.09
12.022916078567505,-1.31,-0.1,0.6,1.44
12.03307318687439,-1.77,0.29,0.29,1.81
12.043714046478271,-1.79,0.56,-0.15,1.88
12.053382158279419,-1.03,0.22,0.19,1.07
12.063720226287842,-0.49,0.2,0.21,0.56
12.096495151519775,-0.53,0.5,0.14,0.74
12.09989309310913,-0.27,0.0,0.45,0.52
12.103001117706299,0.12,-0.15,0.38,0.42
12.106013298034668,-0.19,0.6,0.72,0.95
12.112707138061523,-0.13,0.97,0.52,1.1
12.123779296875,0.28,0.45,1.02,1.14
12.133517265319824,-0.4,0.92,1.37,1.69
12.14356517791748,-1.5,1.31,1.46,2.46
12.153675079345703,-2.02,1.47,1.06,2.71
12.164241075515747,-1.95,1.8,0.58,2.71
12.195939064025879,-2.26,2.08,0.06,3.07
12.198153972625732,-2.61,2.78,-0.6,3.86
12.199824094772339,-2.85,3.43,-0.55,4.49
12.203741073608398,-3.41,3.52,-0.44,4.92
12.21314811706543,-3.85,3.56,-0.46,5.26
12.22365117073059,-4.09,3.65,-0.48,5.5
12.234325170516968,-4.38,3.69,-0.61,5.75
12.244054079055786,-4.66,3.83,-0.68,6.07
12.254390239715576,-5.27,4.09,-0.53,6.69
12.264742136001587,-6.54,4.86,-0.16,8.14
12.292540073394775,-7.83,6.4,0.19,10.11
12.294733047485352,-9.16,7.74,-0.19,11.99
12.295907974243164,-10.0,9.18,-0.83,13.6
12.304126262664795,-10.27,10.15,-0.93,14.46
12.314373016357422,-10.76,9.39,0.06,14.28
12.324424266815186,-10.36,7.97,1.39,13.14
12.334867000579834,-8.08,7.23,3.66,11.44
12.344922065734863,-4.14,8.43,4.31,10.33
12.35495901107788,-0.05,9.42,3.17,9.93
12.365564107894897,1.0,7.28,2.76,7.84
12.395250082015991,-2.13,4.47,4.17,6.47
12.398267269134521,-5.57,1.67,4.58,7.4
12.399930000305176,-6.36,-0.36,3.57,7.3
12.404579162597656,-4.53,-0.74,3.01,5.48
12.414916038513184,-1.9,-1.81,1.71,3.13
12.425639152526855,-3.56,-2.47,3.96,5.86
12.435431957244873,-5.78,-2.69,3.56,7.3
12.445402145385742,-5.91,-3.51,2.12,7.19
12.455842018127441,-5.64,-4.19,1.88,7.27
12.466520309448242,-5.81,-4.64,1.59,7.6
12.49467420578003,-6.22,-4.96,1.28,8.05
12.497133255004883,-6.58,-5.2,1.02,8.44
12.498780250549316,-6.52,-5.34,0.83,8.46
12.505534172058105,-5.82,-5.29,0.6,7.88
12.518279075622559,-4.73,-5.08,0.26,6.94
12.525695085525513,-3.49,-5.11,-0.27,6.19
12.535961151123047,-2.78,-5.04,-0.7,5.79
12.545958995819092,-2.78,-4.7,-0.98,5.54
12.556051254272461,-2.96,-4.29,-1.22,5.35
12.56695008277893,-3.04,-3.79,-1.49,5.08
12.595429182052612,-2.98,-3.18,-1.62,4.64
12.598292112350464,-2.75,-2.63,-1.52,4.09
12.599964141845703,-2.56,-2.13,-1.26,3.56
12.605803966522217,-2.39,-1.48,-1.06,3.0
12.616321086883545,-1.99,-0.75,-1.0,2.35
12.626558303833008,-1.29,-0.06,-0.95,1.6
12.636569023132324,-0.42,0.55,-0.88,1.11
12.646780967712402,0.27,1.19,-0.72,1.41
12.658238172531128,0.67,1.96,-0.5,2.13
12.66763710975647,0.91,2.92,-0.32,3.07
12.695621967315674,1.11,3.82,-0.22,3.98
12.69791030883789,1.33,5.11,-0.09,5.28
12.699551105499268,1.46,6.6,-0.15,6.76
12.70666217803955,1.83,7.97,0.2,8.17
12.718993186950684,2.44,9.1,1.06,9.48
12.72704815864563,3.56,9.44,2.34,10.35
12.737357139587402,4.97,9.11,3.19,10.85
12.747462272644043,5.72,7.67,2.5,9.88
12.757544994354248,4.98,5.35,0.65,7.33
12.767844200134277,4.12,3.77,-1.62,5.81
12.796239137649536,5.42,2.61,-2.85,6.65
12.79947805404663,7.97,2.27,-1.94,8.51
12.802141189575195,9.95,2.48,-1.68,10.39
12.807029247283936,10.84,3.14,-3.66,11.86
12.817594051361084,11.72,2.42,-5.03,12.98
12.827589988708496,13.1,2.2,-4.7,14.09
12.83769416809082,13.19,2.23,-4.47,14.1
12.84810209274292,14.14,2.51,-4.71,15.11
12.857851028442383,12.28,3.91,-7.72,15.02
12.86834716796875,7.57,6.6,-14.33,17.49
12.898152112960815,-3.38,10.97,-7.79,13.87
12.901082992553711,-12.46,13.45,5.79,19.22
12.903586149215698,-6.44,10.7,4.05,13.12
12.907276153564453,4.75,5.1,-2.36,7.35
12.917808055877686,7.31,-0.61,-2.64,7.79
12.928410053253174,3.48,-5.8,0.59,6.78
12.93815803527832,2.74,-5.85,4.11,7.65
12.948732137680054,5.82,-5.2,7.49,10.81
12.958471298217773,6.2,-3.45,4.78,8.55
12.969107151031494,4.6,0.24,-2.08,5.05
12.996742248535156,3.42,2.41,-4.64,6.24
13.00019121170044,3.52,3.31,-5.34,7.2
13.002985000610352,4.2,2.11,-2.67,5.4
13.008199214935303,3.22,0.35,-1.43,3.54
13.01866102218628,1.68,-0.61,-1.54,2.35
13.028796195983887,0.53,-1.21,1.56,2.04
13.039393186569214,-0.5,-0.78,4.12,4.22
13.049042224884033,-0.92,-0.13,3.32,3.44
13.059624195098877,-0.11,0.36,1.47,1.51
13.069580078125,0.97,0.66,0.34,1.22
13.098889112472534,1.25,0.71,-0.49,1.51
13.101445198059082,0.33,0.88,-0.9,1.3
13.103687286376953,-0.87,1.22,-0.52,1.58
13.108508110046387,-1.62,1.38,0.05,2.12
13.119246006011963,-2.04,1.34,0.66,2.52
13.129217147827148,-2.26,1.15,0.5,2.58
13.139416217803955,-2.23,1.08,0.35,2.5
13.150215148925781,-2.05,1.07,-0.34,2.33
13.159633159637451,-1.8,1.35,-1.17,2.53
13.170304298400879,-1.63,1.14,-1.28,2.36
13.200672149658203,-1.54,0.42,-1.26,2.03
13.203906059265137,-1.14,-0.17,-0.67,1.33
13.205581188201904,-0.84,0.91,-0.15,1.24
13.209060192108154,-0.76,1.78,0.3,1.95
13.219612121582031,-0.61,0.88,0.39,1.13
13.229928016662598,-0.87,0.29,0.28,0.95
13.240177154541016,-1.38,0.42,0.18,1.45
13.250294208526611,-1.7,0.56,0.01,1.78
13.260158061981201,-1.83,0.64,-0.13,1.94
13.270766258239746,-1.81,0.77,-0.11,1.97
13.297522068023682,-1.88,0.79,0.11,2.04
13.299558162689209,-2.33,0.8,0.25,2.47
13.301234245300293,-2.94,0.96,0.18,3.09
13.31034517288208,-3.29,1.24,0.36,3.53
13.320512294769287,-3.41,1.57,0.67,3.81
13.33058214187622,-3.57,1.97,0.83,4.16
13.340870141983032,-3.83,2.78,0.59,4.76
13.351373195648193,-4.2,3.19,0.49,5.29
13.360891103744507,-5.05,2.83,0.58,5.81
13.371389150619507,-6.14,2.69,0.91,6.76
13.39986515045166,-7.03,3.13,1.51,7.84
13.402562141418457,-8.05,4.08,1.91,9.22
13.404175281524658,-9.52,5.57,2.14,11.23
13.422893047332764,-11.78,7.27,2.04,13.99
13.4256591796875,-14.73,8.42,1.33,17.01
13.436129093170166,-16.28,9.31,0.73,18.76
13.441627979278564,-14.4,10.61,0.14,17.88
13.451775074005127,-9.43,12.87,0.3,15.95
13.462980270385742,-2.7,14.05,0.44,14.31
13.472567081451416,0.61,12.17,3.13,12.58
13.501196146011353,-4.05,11.11,6.08,13.29
13.504179000854492,-9.27,8.2,5.25,13.44
13.50584602355957,-11.25,4.83,5.3,13.34
13.522500991821289,-11.19,1.91,5.39,12.56
13.52492618560791,-9.64,1.47,5.05,10.98
13.53575611114502,-6.6,2.85,6.5,9.69
13.541666984558105,-0.92,4.44,1.51,4.77
13.551995277404785,8.58,1.45,-3.68,9.44
13.56205701828003,10.9,-2.09,-0.02,11.09
13.572563171386719,0.41,-1.45,2.45,2.87
13.602385997772217,-5.99,-2.39,3.33,7.25
13.605173110961914,-8.65,-5.13,2.56,10.37
13.607534170150757,-10.61,-6.41,0.45,12.4
13.6218900680542,-10.81,-5.55,-1.27,12.21
13.624796152114868,-7.91,-4.01,-1.7,9.02
13.636321067810059,-5.35,-3.31,-1.86,6.56
13.642796993255615,-3.99,-3.39,-1.69,5.5
13.65303111076355,-3.13,-4.07,-1.21,5.27
13.662858009338379,-2.89,-4.97,-0.93,5.82
13.673573017120361,-3.16,-5.58,-1.07,6.5
13.701742172241211,-3.52,-5.81,-1.4,6.93
13.704575061798096,-3.9,-5.51,-1.78,6.98
13.70679521560669,-4.14,-4.5,-2.1,6.46
13.722133159637451,-4.0,-3.37,-2.18,5.66
13.724592208862305,-3.37,-2.5,-1.97,4.63
13.73573923110962,-2.57,-2.05,-1.46,3.59
13.743141174316406,-2.22,-1.48,-0.74,2.76
13.753641128540039,-2.11,-0.43,-0.57,2.22
13.763636112213135,-1.4,0.89,-0.86,1.86
13.773730278015137,-0.41,3.42,-0.95,3.57
13.801172256469727,1.18,5.66,-1.46,5.96
13.804394245147705,3.2,7.58,-1.76,8.41
13.806275129318237,5.11,9.88,-1.23,11.19
13.822988033294678,7.04,11.17,-0.37,13.2
13.825667142868042,8.5,12.24,0.5,14.91
13.835918188095093,8.88,12.9,1.4,15.72
13.844205141067505,8.61,12.51,1.97,15.31
13.853629112243652,8.77,9.95,1.79,13.38
13.864025115966797,9.66,5.93,0.52,11.34
13.87412714958191,11.38,3.23,-1.13,11.88
13.901899099349976,14.39,2.83,-1.48,14.74
13.90415906906128,16.86,4.08,-1.82,17.44
13.905758142471313,17.93,3.75,-3.95,18.73
13.922213077545166,19.73,3.05,-5.4,20.68
13.924931049346924,19.42,5.57,-5.88,21.04
13.937011241912842,14.71,7.75,-12.6,20.86
13.944218158721924,-1.1,15.27,-6.74,16.72
13.955103158950806,-14.17,22.01,5.86,26.82
13.964622974395752,-5.11,12.34,2.78,13.64
13.975012302398682,8.49,2.47,4.08,9.73
14.003318309783936,13.24,-1.72,3.61,13.83
14.006346225738525,16.28,-4.46,-3.7,17.28
14.00846529006958,10.89,-4.44,0.55,11.77
14.021137237548828,5.84,-4.53,4.19,8.49
14.024445056915283,2.3,-1.37,3.4,4.32
14.035917282104492,-0.5,0.95,1.1,1.53
14.045005083084106,-0.76,2.35,-2.62,3.6
14.05505895614624,1.51,2.06,-4.26,4.96
14.065600156784058,4.59,0.82,-4.19,6.26
14.07538914680481,6.11,-0.38,-2.36,6.56
14.102805137634277,4.75,-1.04,-0.78,4.92
14.10578727722168,2.18,-0.67,-0.25,2.29
14.107417106628418,0.21,-0.13,0.81,0.84
14.12148118019104,-0.73,0.06,1.91,2.04
14.1251220703125,-1.01,0.04,2.07,2.3
14.13681697845459,-0.62,-0.07,1.35,1.48
14.145889282226562,0.18,-0.19,0.35,0.43
14.15578818321228,0.49,-0.07,-0.43,0.65
14.165712118148804,0.23,0.22,-0.38,0.49
14.176433086395264,-0.49,0.38,-0.22,0.65
14.19398808479309,-1.28,0.44,0.01,1.35
14.197007179260254,-1.73,0.32,0.32,1.78
14.20630407333374,-2.02,0.35,0.43,2.09
14.21675729751587,-2.09,0.37,0.53,2.18
14.226541996002197,-1.71,0.5,0.16,1.78
14.236960172653198,-1.06,0.71,0.12,1.28
14.2465181350708,-0.74,0.83,0.04,1.11
14.256705284118652,-1.05,0.92,0.11,1.4
14.266586303710938,-1.46,0.9,0.56,1.8
14.276913166046143,-1.68,0.62,0.8,1.96
14.305684089660645,-1.43,1.22,0.66,1.99
14.308748245239258,-1.39,2.52,-0.04,2.87
14.311065196990967,-1.98,2.79,-1.4,3.69
14.321823120117188,-2.85,1.89,-1.9,3.91
14.326381206512451,-3.37,1.53,-2.21,4.31
14.337055206298828,-3.43,1.78,-1.92,4.31
14.346865177154541,-3.49,2.15,-1.03,4.22
14.357385158538818,-3.75,2.65,0.1,4.59
14.367566108703613,-4.18,3.07,1.28,5.34
14.377655029296875,-4.64,3.11,1.86,5.88
14.406253099441528,-4.78,3.13,1.75,5.97
14.40915298461914,-4.69,3.34,1.83,6.04
14.411466121673584,-5.2,3.71,2.37,6.81
14.42188310623169,-6.48,4.37,2.86,8.32
14.427020072937012,-7.96,5.29,2.84,9.97
14.437445163726807,-9.21,6.39,2.47,11.47
14.447647094726562,-10.66,7.83,1.86,13.35
14.457755088806152,-13.7,8.95,1.13,16.4
14.468099117279053,-16.79,9.07,0.31,19.08
14.477949142456055,-17.62,8.53,-0.35,19.57
14.506120204925537,-15.72,8.49,-0.21,17.86
14.509183168411255,-10.91,10.47,0.88,15.14
14.511571168899536,-3.82,14.74,2.61,15.44
14.521084308624268,3.28,15.69,2.98,16.3
14.527503967285156,3.67,11.02,5.28,12.75
14.53794813156128,-1.9,6.35,5.8,8.8
14.548256158828735,-7.57,3.98,4.9,9.85
14.558462142944336,-10.85,2.4,4.75,12.08
14.568609237670898,-10.5,1.22,6.68,12.5
14.578521251678467,-5.25,2.53,7.11,9.19
14.60584306716919,3.04,3.11,1.17,4.5
14.608828067779541,9.8,-0.87,-0.73,9.86
14.61054801940918,5.36,-3.3,1.61,6.49
14.621737003326416,-4.39,-2.57,3.24,6.03
14.628209114074707,-8.63,-4.09,4.02,10.36
14.639058113098145,-10.9,-6.45,3.08,13.03
14.648975133895874,-11.83,-7.12,1.15,13.85
14.65868616104126,-9.43,-5.59,-0.08,10.96
14.668975114822388,-5.6,-4.1,-0.14,6.94
14.679488182067871,-3.82,-3.42,-0.19,5.13
14.708791255950928,-3.15,-3.49,0.11,4.7
14.711686134338379,-3.22,-4.19,0.63,5.32
14.71401596069336,-3.57,-4.97,0.76,6.16
14.7207612991333,-3.63,-5.34,0.58,6.48
14.72891902923584,-3.43,-5.16,0.26,6.2
14.739134311676025,-3.29,-4.54,0.07,5.6
14.749449253082275,-3.09,-3.91,0.22,4.98
14.759227275848389,-2.53,-3.42,0.5,4.28
14.769540309906006,-1.64,-2.98,0.73,3.47
14.779766082763672,-0.71,-2.43,0.71,2.62
14.808899164199829,0.09,-1.49,0.26,1.51
14.811621189117432,0.89,-0.03,-0.35,0.95
14.813270092010498,2.06,1.78,-0.87,2.85
14.820577144622803,3.76,3.63,-1.47,5.42
14.829815149307251,5.96,4.94,-1.85,7.95
14.839661121368408,7.67,5.21,-1.5,9.39
14.850062131881714,8.03,6.28,-1.34,10.28
14.859913110733032,7.54,8.15,-0.66,11.12
14.870534181594849,7.05,10.99,0.94,13.09
14.881205081939697,7.65,13.49,3.27,15.84
14.910210132598877,8.93,13.89,6.1,17.6
14.91293716430664,8.89,11.25,8.35,16.59
14.914665222167969,7.03,7.33,7.91,12.87
14.9203462600708,7.28,5.43,2.04,9.3
14.930045127868652,13.28,4.27,-3.02,14.27
14.940165996551514,21.11,3.13,-4.27,21.76
14.950427055358887,25.05,1.81,-5.34,25.67
14.960484981536865,23.3,1.44,-7.61,24.55
14.970858097076416,17.88,0.75,-11.06,21.03
14.981173992156982,12.2,1.85,-19.77,23.3
15.009727954864502,-3.6,4.0,-20.22,20.92
15.01252818107605,-23.76,13.81,-12.77,30.3
15.014575958251953,-25.39,17.34,-5.09,31.16
15.021010160446167,-1.24,7.86,0.29,7.96
15.030241012573242,9.27,10.46,10.13,17.26
15.041054248809814,14.84,5.82,8.93,18.27
15.051699161529541,23.9,-3.48,-2.27,24.25
15.061086177825928,13.28,-6.59,4.66,15.54
15.071137189865112,-1.19,-7.0,12.05,13.98
15.081802129745483,-4.15,-3.77,5.21,7.65
15.111849308013916,-4.19,0.13,-9.32,10.21
15.114847183227539,1.1,3.91,-10.47,11.23
15.116620063781738,8.26,2.97,-2.86,9.23
15.121413230895996,10.87,1.19,-2.51,11.21
15.13650918006897,7.91,-0.86,-2.38,8.3
15.141398191452026,2.65,-1.55,0.15,3.07
15.153011083602905,-1.51,-0.8,2.47,3.0
15.161969184875488,-3.56,0.11,3.79,5.2
15.172194004058838,-3.44,0.74,2.94,4.58
15.182764053344727,-0.98,0.77,0.86,1.51
15.208596229553223,1.79,0.07,-0.54,1.87
15.210472106933594,3.01,-0.39,-1.33,3.31
15.21200704574585,2.81,-0.32,-1.29,3.1
15.221718311309814,1.46,0.1,-0.65,1.6
15.231574058532715,-0.61,0.6,0.15,0.86
15.242769241333008,-2.32,0.88,0.71,2.58
15.252348184585571,-2.84,0.75,0.81,3.04
15.262386083602905,-2.38,0.24,0.64,2.47
15.2722749710083,-1.64,0.05,-0.12,1.64
15.283339023590088,-0.91,-0.12,-0.49,1.04
15.31180715560913,-0.84,-0.45,-0.5,1.07
15.3145170211792,-1.25,-0.48,-0.29,1.37
15.316236972808838,-1.82,-0.24,0.3,1.86
15.322120189666748,-2.13,0.14,0.6,2.21
15.336300134658813,-1.84,0.98,0.75,2.21
15.342607975006104,-1.56,1.92,0.51,2.52
15.353171110153198,-1.75,1.48,0.47,2.33
15.362915992736816,-2.02,0.57,-0.32,2.12
15.373274087905884,-1.87,0.44,-0.54,1.99
15.383609294891357,-1.81,0.56,-0.79,2.05
15.4128999710083,-1.77,0.74,-0.67,2.03
15.415930271148682,-1.86,1.27,-0.05,2.25
15.41822099685669,-2.27,2.05,0.93,3.19
15.422643184661865,-2.65,2.58,1.72,4.07
15.436525106430054,-2.91,2.78,1.66,4.35
15.443133115768433,-3.06,2.77,0.93,4.23
15.453022956848145,-3.18,2.79,0.01,4.23
15.463468074798584,-3.12,3.18,-0.49,4.48
15.47376298904419,-3.43,3.38,-0.36,4.82
15.483975172042847,-4.25,3.55,0.04,5.53
15.51344919204712,-4.98,4.01,0.48,6.41
15.516741275787354,-5.55,5.09,1.02,7.59
15.519749164581299,-6.72,6.28,1.56,9.32
15.523309230804443,-9.1,6.98,1.88,11.62
15.537623167037964,-11.47,7.37,1.87,13.76
15.544063091278076,-14.03,8.18,1.69,16.32
15.554157257080078,-15.64,8.7,1.46,17.95
15.564173221588135,-14.46,9.06,1.73,17.15
15.574215173721313,-14.78,10.79,1.32,18.34
15.5854811668396,-10.3,11.94,1.38,15.82
15.614039182662964,-1.88,12.32,1.81,12.59
15.6170072555542,3.36,11.02,3.16,11.94
15.618659019470215,0.2,8.56,6.35,10.66
15.623854160308838,-6.07,5.33,5.88,9.99
15.63444209098816,-9.68,2.65,4.85,11.14
15.644388198852539,-11.62,0.95,4.65,12.55
15.655007123947144,-11.35,-0.01,5.55,12.63
15.664695262908936,-5.55,0.78,7.23,9.14
15.675132274627686,2.99,1.09,0.86,3.29
15.685509204864502,11.71,-1.09,-3.43,12.25
15.71660327911377,9.74,-2.98,1.02,10.23
15.719611167907715,-1.57,-2.31,3.09,4.16
15.7224440574646,-6.94,-3.83,4.08,8.91
15.725467205047607,-9.8,-6.4,3.33,12.16
15.73491096496582,-11.62,-7.39,1.34,13.83
15.744721174240112,-11.03,-6.04,-0.45,12.58
15.755409240722656,-6.74,-4.51,-0.63,8.13
15.765828132629395,-4.1,-3.58,-0.55,5.47
15.775872230529785,-2.98,-3.47,-0.47,4.59
15.78618311882019,-2.31,-4.07,-0.18,4.68
15.81347107887268,-2.04,-4.92,0.01,5.32
15.815546989440918,-2.03,-5.46,0.16,5.82
15.817146301269531,-2.16,-5.55,0.14,5.95
15.82516622543335,-2.47,-5.05,-0.11,5.62
15.836828231811523,-2.91,-4.08,-0.49,5.03
15.845561981201172,-3.05,-3.09,-0.68,4.39
15.855857133865356,-2.77,-2.37,-0.25,3.65
15.866221189498901,-2.32,-1.71,0.52,2.92
15.876107215881348,-1.96,-0.23,1.26,2.34
15.88672399520874,-1.16,1.42,1.18,2.18
15.915789127349854,0.42,2.81,0.71,2.92
15.918577194213867,2.22,5.07,0.43,5.55
15.920273303985596,4.16,6.66,0.1,7.85
15.925986289978027,5.51,8.19,0.46,9.88
15.936040163040161,6.05,9.66,1.36,11.47
15.946843147277832,6.31,10.65,2.38,12.6
15.957252025604248,6.93,11.49,3.33,13.82
15.967129230499268,8.14,11.05,4.32,14.38
15.976459980010986,9.04,9.55,5.03,14.07
15.987030029296875,8.6,7.19,4.13,11.94
16.012822151184082,6.84,4.99,0.86,8.51
16.01472806930542,6.52,4.51,-1.74,8.11
16.016464233398438,10.92,4.14,-1.58,11.78
16.02652406692505,16.42,3.04,-3.15,16.99
16.036404132843018,19.59,1.08,-5.84,20.47
16.0467631816864,20.8,0.17,-6.75,21.86
16.057058095932007,18.55,2.23,-6.98,19.94
16.06715202331543,12.5,3.08,-7.58,14.93
16.07700514793396,7.11,3.75,-14.43,16.51
16.087756156921387,-3.46,7.04,-19.1,20.64
16.116173267364502,-17.82,13.54,-8.35,23.88
16.119014263153076,-18.14,12.6,1.76,22.15
16.120891094207764,0.57,4.95,3.77,6.24
16.126662254333496,8.74,2.57,4.17,10.01
16.137263298034668,10.48,7.18,3.1,13.07
16.147390127182007,14.94,2.47,6.43,16.45
16.157402992248535,16.86,-5.52,2.19,17.87
16.167928218841553,5.88,-4.15,3.7,8.09
16.17820930480957,-0.44,-3.2,4.62,5.63
16.188778162002563,-2.09,0.12,1.68,2.68
16.213410139083862,-2.22,1.79,-2.4,3.72
16.215232133865356,0.23,2.46,-5.87,6.36
16.216976165771484,4.15,1.95,-5.63,7.26
16.2275652885437,6.46,0.47,-3.88,7.55
16.238029956817627,6.28,-1.06,-2.11,6.7
16.248387098312378,3.87,-1.43,0.27,4.13
16.25839900970459,0.89,-0.92,2.43,2.74
16.268781185150146,-1.44,-0.37,3.19,3.51
16.278555154800415,-2.59,0.14,2.91,3.89
16.28917908668518,-1.97,0.2,2.02,2.82
16.317086219787598,-0.19,-0.02,0.51,0.54
16.31991195678711,1.15,-0.01,-0.98,1.51
16.322015285491943,1.62,0.15,-1.57,2.26
16.328379154205322,1.25,0.28,-1.01,1.63
16.338333129882812,0.0,0.52,-0.19,0.55
16.3487651348114,-1.69,0.49,0.29,1.78
16.358757972717285,-2.77,0.2,0.46,2.81
16.369399070739746,-2.65,0.19,0.22,2.66
16.37896728515625,-1.43,0.2,-0.14,1.45
16.38935613632202,0.05,0.25,-0.5,0.56
16.41812801361084,0.4,0.15,-0.14,0.44
16.42117714881897,-0.15,0.21,0.13,0.28
16.42313528060913,-1.09,0.23,0.31,1.15
16.440632104873657,-1.49,0.31,0.37,1.56
16.443098068237305,-1.45,0.45,0.53,1.6
16.453298091888428,-1.44,0.6,0.72,1.71
16.459196090698242,-1.3,0.7,0.74,1.65
16.469847202301025,-1.14,0.84,0.64,1.55
16.479860305786133,-1.13,1.33,0.12,1.74
16.48977017402649,-1.4,1.83,-0.61,2.38
16.516122102737427,-1.89,1.97,-1.55,3.13
16.51822018623352,-2.28,1.73,-1.49,3.22
16.52009105682373,-2.36,1.77,-1.18,3.17
16.529670238494873,-2.38,2.11,-0.32,3.19
16.54011106491089,-3.05,2.51,0.61,3.99
16.550343990325928,-3.85,2.68,1.26,4.85
16.560603141784668,-4.09,2.81,1.14,5.09
16.570415019989014,-3.75,2.92,0.72,4.8
16.580358028411865,-3.67,3.19,0.64,4.9
16.590682983398438,-4.41,3.5,0.98,5.71
16.619417190551758,-5.43,3.91,1.38,6.83
16.622360229492188,-6.16,4.54,1.45,7.78
16.62395715713501,-6.49,5.45,1.37,8.58
16.640825271606445,-7.5,6.45,1.16,9.95
16.64325523376465,-9.95,7.32,1.15,12.4
16.653563022613525,-13.04,7.96,1.29,15.33
16.660608291625977,-15.69,8.37,1.02,17.81
16.671091079711914,-15.3,8.31,0.93,17.43
16.680751085281372,-13.9,8.83,1.87,16.57
16.691347122192383,-10.76,10.83,2.54,15.47
16.723838090896606,-4.06,12.67,2.14,13.47
16.726713180541992,2.4,13.05,3.31,13.67
16.72905707359314,1.87,11.45,5.83,12.98
16.738248109817505,-3.4,8.44,6.23,11.02
16.740783214569092,-7.95,4.9,6.0,11.1
16.7540602684021,-10.32,2.07,5.68,11.96
16.761203289031982,-10.85,0.5,5.23,12.05
16.771388053894043,-7.35,0.61,7.12,10.25
16.78171396255493,-0.37,2.45,3.38,4.19
16.79188823699951,8.22,0.01,-3.49,8.93
16.81983709335327,7.46,-2.47,0.3,7.86
16.822781085968018,-3.24,-1.43,2.81,4.52
16.824800968170166,-8.5,-2.84,3.76,9.71
16.842122077941895,-10.9,-5.75,4.25,13.03
16.844501972198486,-12.16,-7.16,2.53,14.33
16.85340404510498,-10.57,-6.1,0.28,12.2
16.861863136291504,-6.57,-4.24,-0.58,7.84
16.871971130371094,-4.69,-3.02,-0.93,5.65
16.882047176361084,-4.1,-2.77,-0.98,5.04
16.892754077911377,-3.76,-3.35,-0.65,5.07
16.920327186584473,-3.57,-4.13,-0.32,5.46
16.922780990600586,-3.37,-4.57,-0.24,5.68
16.924363136291504,-3.1,-4.63,-0.51,5.59
16.940768241882324,-2.96,-4.27,-0.75,5.24
16.94296407699585,-2.94,-3.65,-0.92,4.77
16.954127311706543,-2.68,-3.16,-0.87,4.23
16.9624342918396,-2.26,-2.86,-0.48,3.67
16.972973108291626,-2.0,-2.45,0.13,3.16
16.983184099197388,-1.72,-1.57,0.64,2.41
16.993069171905518,-1.18,-0.38,0.72,1.43
17.02115511894226,-0.33,1.36,0.6,1.52
17.02389097213745,1.06,3.17,0.12,3.34
17.025547981262207,2.93,5.14,-0.28,5.92
17.039860248565674,4.93,7.28,-0.43,8.8
17.042713165283203,6.74,9.74,0.02,11.84
17.055190086364746,8.35,12.04,0.87,14.67
17.06364607810974,9.74,13.87,1.9,17.05
17.073781967163086,11.02,14.59,2.83,18.5
17.084607124328613,11.97,13.23,3.84,18.24
17.093289136886597,11.86,10.4,3.83,16.23
17.11827516555786,10.28,6.63,2.33,12.45
17.12023615837097,8.73,2.02,-0.05,8.96
17.122403144836426,8.99,1.58,-1.88,9.31
17.139716148376465,13.8,3.39,-1.78,14.32
17.143099308013916,18.65,2.06,-3.44,19.07
17.155338287353516,21.44,-0.76,-6.16,22.32
17.16364812850952,21.43,0.87,-7.99,22.88
17.174331188201904,14.55,3.29,-7.59,16.73
17.18424916267395,4.38,3.36,-11.2,12.48
17.193767070770264,-13.01,7.73,-7.91,17.07
17.220595121383667,-26.98,18.57,-3.51,32.94
17.223180294036865,-14.43,14.43,0.49,20.41
17.224907159805298,6.02,2.25,2.9,7.05
17.239813089370728,10.36,7.28,5.16,13.67
17.243587017059326,14.43,6.51,7.99,17.73
17.254589080810547,23.56,-3.32,-1.84,23.86
17.264118194580078,16.67,-7.6,2.06,18.43
17.2744140625,1.0,-6.8,5.93,9.07
17.284464120864868,-3.1,-2.67,4.66,6.2
17.295343160629272,-4.24,0.51,1.46,4.51
17.32236409187317,-2.36,2.39,-3.96,5.19
17.325393199920654,2.62,2.87,-5.46,6.7
17.32771110534668,6.37,1.52,-5.32,8.43
17.34027099609375,7.85,-0.24,-5.22,9.43
17.344499111175537,6.82,-1.17,-2.58,7.38
17.354923248291016,3.97,-1.24,0.78,4.23
17.36483907699585,0.89,-0.78,1.86,2.2
17.375088214874268,-1.61,-0.2,1.66,2.32
17.385645151138306,-2.46,0.4,1.8,3.07
17.395472049713135,-1.47,0.41,1.89,2.42
17.42369318008423,0.22,0.02,0.79,0.82
17.426668167114258,1.41,-0.09,-0.81,1.62
17.42902112007141,1.85,-0.01,-1.52,2.39
17.439504146575928,1.3,0.17,-1.31,1.85
17.44544219970703,-0.05,0.48,-0.48,0.68
17.45546317100525,-1.37,0.56,0.41,1.53
17.46562623977661,-2.18,0.43,0.67,2.32
17.47564697265625,-2.14,0.15,0.79,2.28
17.48640727996826,-1.76,0.07,0.53,1.83
17.49611210823059,-1.06,0.13,-0.03,1.06
17.523434162139893,-0.45,0.23,-0.17,0.53
17.526846170425415,-0.4,0.19,0.05,0.44
17.52904510498047,-1.02,0.13,0.27,1.06
17.540037155151367,-1.47,0.09,0.27,1.49
17.54567003250122,-1.32,0.19,0.28,1.36
17.556255102157593,-1.03,0.31,0.48,1.17
17.566200256347656,-0.77,0.33,0.78,1.14
17.576653957366943,-0.75,0.61,0.85,1.28
17.586820125579834,-0.96,1.47,0.86,1.95
17.596930027008057,-1.54,1.82,0.61,2.46
17.62532615661621,-2.07,1.22,0.69,2.49
17.628112077713013,-2.55,1.22,0.01,2.82
17.63031315803528,-2.84,2.2,-0.68,3.65
17.64024305343628,-3.57,2.47,0.21,4.34
17.646416187286377,-3.34,2.83,0.69,4.43
17.656857013702393,-3.54,3.24,0.77,4.86
17.666961193084717,-3.65,3.59,0.7,5.16
17.677462100982666,-3.28,3.95,0.72,5.18
17.687154293060303,-3.67,4.21,0.86,5.65
17.69735813140869,-4.45,4.52,1.19,6.45
17.726726055145264,-5.17,5.0,1.55,7.35
17.730066299438477,-5.72,5.69,1.96,8.3
17.732441186904907,-6.71,6.35,2.26,9.51
17.74271512031555,-8.57,6.58,2.21,11.02
17.747220993041992,-10.62,7.18,2.0,12.97
17.757373094558716,-12.78,8.22,1.84,15.3
17.76752519607544,-14.33,8.76,1.94,16.9
17.77773118019104,-14.1,9.47,2.4,17.15
17.788071155548096,-14.61,11.18,2.39,18.55
17.798126220703125,-12.68,12.26,2.97,17.88
17.827747106552124,-7.14,12.01,4.27,14.61
17.83063507080078,-3.0,10.51,4.64,11.87
17.832975149154663,-2.82,8.62,3.96,9.89
17.838871955871582,-6.6,5.75,4.17,9.69
17.847562074661255,-9.75,3.68,3.55,11.0
17.858307123184204,-11.04,2.06,3.5,11.76
17.86820125579834,-8.68,1.49,5.06,10.15
17.878021240234375,-1.69,3.15,4.34,5.62
17.888105154037476,9.41,0.01,-1.88,9.59
17.898754119873047,13.72,-4.3,-2.17,14.54
17.9286150932312,2.6,-2.63,0.06,3.69
17.931425094604492,-5.91,-2.24,0.57,6.34
17.933123111724854,-10.4,-4.06,-0.2,11.16
17.93916916847229,-12.71,-5.14,-0.58,13.72
17.947996139526367,-11.24,-5.03,-0.24,12.31
17.95852017402649,-6.13,-5.03,0.21,7.93
17.96870708465576,-4.0,-5.0,0.0,6.4
17.978780269622803,-3.48,-5.38,-0.16,6.4
17.988989114761353,-3.68,-5.8,-0.15,6.87
17.999097108840942,-4.07,-6.07,-0.27,7.31
18.028792142868042,-4.28,-6.31,-0.56,7.64
18.031691074371338,-4.65,-6.06,-0.86,7.68
18.033738136291504,-4.92,-5.42,-0.99,7.38
18.040258169174194,-4.74,-4.76,-0.92,6.78
18.054940223693848,-4.4,-4.15,-0.82,6.1
18.05916118621826,-3.76,-3.43,-0.84,5.15
18.070975303649902,-2.9,-2.7,-0.91,4.06
18.0794939994812,-2.24,-1.75,-0.73,2.93
18.089930057525635,-1.54,-0.5,-0.99,1.89
18.10020923614502,-0.73,1.28,-2.19,2.63
18.128812074661255,0.54,3.14,-3.29,4.57
18.131196975708008,2.58,4.92,-3.33,6.47
18.132853031158447,5.06,6.51,-2.92,8.74
18.1392822265625,7.14,8.38,-2.34,11.25
18.149259090423584,8.28,10.21,-1.54,13.23
18.160892963409424,8.56,11.89,-0.27,14.65
18.170868158340454,9.06,13.01,1.07,15.88
18.181276082992554,10.23,13.49,1.92,17.03
18.190659046173096,11.34,13.07,1.7,17.38
18.20031499862671,12.04,9.89,0.54,15.59
18.229145050048828,11.88,5.29,-0.27,13.0
18.232351303100586,12.44,2.86,-1.64,12.86
18.234111309051514,15.01,2.38,-0.14,15.19
18.239785194396973,16.1,3.32,-1.12,16.47
18.250235080718994,14.79,4.59,-2.62,15.7
18.260569095611572,14.09,3.69,-2.29,14.74
18.270177125930786,15.76,2.53,-3.93,16.43
18.28053617477417,7.14,1.03,-4.1,8.29
18.29032611846924,-8.29,4.49,-2.45,9.74
18.301201105117798,-17.85,13.3,-3.62,22.55
18.31112313270569,-14.59,13.03,-3.88,19.94
18.321015119552612,0.94,6.06,0.25,6.13
18.34994602203369,8.82,6.16,5.97,12.3
18.353077173233032,14.25,2.97,1.95,14.68
18.355877161026,21.36,-1.94,-6.11,22.3
18.36058521270752,14.11,-3.62,-1.97,14.69
18.370541095733643,3.87,-3.38,2.58,5.74
18.380659103393555,0.65,-2.48,4.68,5.33
18.391042232513428,-2.43,-0.38,2.33,3.38
18.401350021362305,-2.62,2.22,-2.35,4.16
18.411513090133667,1.1,2.63,-3.7,4.67
18.421632289886475,4.38,1.48,-3.21,5.62
18.45094609260559,5.44,-0.18,-2.6,6.03
18.453694105148315,4.47,-1.0,-1.17,4.72
18.4555721282959,2.59,-0.99,0.56,2.82
18.46087908744812,0.66,-0.58,1.76,1.96
18.471117973327637,-0.84,-0.1,2.19,2.34
18.48149824142456,-1.7,0.16,2.21,2.79
18.491409301757812,-1.69,0.11,1.74,2.42
18.501882076263428,-0.9,-0.05,0.77,1.18
18.51191997528076,0.06,-0.14,-0.39,0.41
18.522175073623657,0.76,-0.04,-1.03,1.28
18.551126956939697,0.84,0.11,-0.81,1.17
18.55406618118286,0.05,0.12,-0.18,0.22
18.556742191314697,-1.24,0.0,0.39,1.29
18.561442136764526,-2.22,-0.09,0.73,2.33
18.57174015045166,-2.88,-0.02,0.73,2.97
18.582077980041504,-2.36,-0.12,0.57,2.43
18.591982126235962,-1.55,-0.03,0.39,1.59
18.602363109588623,-0.96,0.01,0.13,0.96
18.612401008605957,-0.88,-0.06,0.15,0.89
18.622560024261475,-0.87,0.0,0.26,0.9
18.64949321746826,-1.06,0.09,0.26,1.09
18.652585983276367,-1.16,0.32,0.24,1.22
18.654234170913696,-0.84,0.49,0.48,1.08
18.661978244781494,-0.44,0.54,0.38,0.79
18.67226219177246,-0.23,0.63,0.41,0.78
18.68208599090576,-0.47,0.84,0.28,1.0
18.692745208740234,-1.0,0.94,0.06,1.37
18.703094005584717,-1.22,0.81,-0.23,1.48
18.712927103042603,-1.27,1.0,-0.29,1.64
18.723725080490112,-1.34,1.43,0.29,1.98
18.752363204956055,-1.6,2.14,0.32,2.69
18.755412101745605,-2.28,3.15,-0.37,3.9
18.757838249206543,-3.1,3.66,-0.09,4.79
18.762396097183228,-3.58,3.32,-0.48,4.9
18.77323317527771,-3.19,2.87,-1.07,4.42
18.782984256744385,-2.78,2.95,-0.81,4.13
18.793097019195557,-3.34,3.28,0.31,4.69
18.803595066070557,-4.53,4.04,1.45,6.24
18.813519954681396,-5.41,5.27,2.53,7.96
18.824597120285034,-6.31,6.1,2.94,9.25
18.851974964141846,-7.5,6.5,2.43,10.21
18.855000972747803,-8.57,6.76,1.34,10.99
18.857213973999023,-10.36,7.45,0.59,12.77
18.86348009109497,-12.98,8.31,0.07,15.41
18.874303102493286,-15.48,9.1,-0.33,17.95
18.884153127670288,-16.69,9.76,-0.13,19.33
18.893726110458374,-16.06,10.43,0.65,19.16
18.904125213623047,-13.2,10.34,1.72,16.85
18.914185047149658,-7.62,10.3,2.85,13.12
18.92468023300171,0.1,12.56,1.62,12.66
18.95321798324585,5.16,10.75,2.73,12.23
18.95554208755493,1.63,6.68,5.28,8.66
18.957186222076416,-5.29,4.24,4.87,8.34
18.974234104156494,-9.83,2.32,4.27,10.96
18.976816177368164,-11.97,0.36,4.88,12.93
18.98898220062256,-9.26,-0.65,7.28,11.79
18.994585037231445,-1.94,-0.15,4.28,4.7
19.00460410118103,5.96,-1.06,-1.74,6.29
19.015027046203613,5.95,-2.97,0.39,6.66
19.02519917488098,-3.6,-2.55,2.61,5.12
19.05493927001953,-9.11,-3.85,3.81,10.59
19.05766201019287,-11.84,-6.34,4.18,14.06
19.060009956359863,-13.26,-7.57,2.47,15.46
19.07485318183899,-11.89,-6.45,0.4,13.53
19.0768301486969,-7.38,-4.85,-0.47,8.84
19.088625192642212,-5.01,-3.74,-0.66,6.28
19.095252990722656,-3.89,-3.28,-0.35,5.1
19.10527801513672,-2.71,-3.45,-0.04,4.38
19.115561962127686,-1.35,-4.25,-0.33,4.47
19.125405311584473,-0.62,-4.74,-1.02,4.88
19.154158115386963,-0.92,-4.46,-1.72,4.86
19.15623116493225,-1.64,-4.04,-2.25,4.9
19.15769624710083,-2.2,-3.55,-2.54,4.88
19.175172090530396,-2.35,-3.02,-1.9,4.27
19.17708921432495,-2.23,-2.63,-0.65,3.5
19.19230318069458,-1.66,-1.95,0.14,2.56
19.19560408592224,-0.65,-0.56,-0.03,0.85
19.20590615272522,0.46,1.47,-0.53,1.62
19.216000080108643,1.67,3.57,-1.05,4.07
19.22640895843506,2.94,5.99,-1.2,6.77
19.255893230438232,4.38,8.35,-0.97,9.47
19.258882999420166,5.69,10.72,-0.48,12.14
19.261137008666992,6.74,12.52,-0.1,14.21
19.27367401123047,7.56,13.82,0.56,15.76
19.27644395828247,7.96,14.09,1.67,16.26
19.289483070373535,8.48,13.1,2.7,15.83
19.296171188354492,9.22,9.51,2.07,13.4
19.30655312538147,9.86,4.82,-0.32,10.97
19.316610097885132,11.45,2.03,-2.07,11.81
19.326885223388672,14.5,2.4,-0.68,14.71
19.355131149291992,16.95,4.01,-1.49,17.48
19.357283115386963,17.82,2.15,-3.1,18.21
19.35879898071289,18.66,0.17,-4.43,19.17
19.374707221984863,17.78,2.06,-5.28,18.66
19.376564979553223,14.23,3.51,-5.29,15.58
19.389294147491455,8.58,3.33,-11.07,14.39
19.396627187728882,-5.47,7.64,-9.72,13.51
19.40740203857422,-20.42,13.62,1.01,24.56
19.417030096054077,-19.91,13.02,1.46,23.83
19.42765522003174,0.49,3.05,1.42,3.39
19.455924034118652,9.29,5.23,3.32,11.16
19.45884919166565,12.55,7.31,6.82,16.04
19.461027145385742,20.29,-1.28,-2.2,20.44
19.47499108314514,18.29,-4.53,-1.23,18.88
19.477530002593994,3.77,-4.47,4.09,7.13
19.488428115844727,-0.18,-3.67,5.18,6.35
19.49725914001465,-1.87,-0.8,1.76,2.68
19.507997035980225,-1.65,2.09,-4.33,5.08
19.51807403564453,1.84,2.94,-5.78,6.74
19.52784824371338,4.69,2.06,-3.77,6.36
19.554591178894043,5.15,0.25,-1.78,5.45
19.556701183319092,3.99,-1.19,0.12,4.16
19.558377265930176,2.05,-1.41,1.65,2.98
19.57490825653076,-0.22,-0.62,2.21,2.3
19.577705144882202,-1.54,0.19,2.32,2.79
19.589227199554443,-1.49,0.31,2.29,2.74
19.59834098815918,-0.64,0.14,1.31,1.46
19.60851526260376,0.36,0.05,-0.08,0.37
19.61936330795288,1.02,0.03,-0.74,1.26
19.628985166549683,1.1,0.09,-0.64,1.27
19.657464027404785,0.33,0.25,-0.17,0.44
19.6603422164917,-0.93,0.33,0.32,1.03
19.662471294403076,-2.14,0.31,0.5,2.21
19.674283981323242,-2.61,0.18,0.49,2.66
19.67847514152527,-2.38,0.0,0.6,2.45
19.689175128936768,-1.94,-0.16,0.51,2.01
19.698774099349976,-1.43,-0.18,0.44,1.5
19.70899200439453,-1.41,-0.25,0.26,1.45
19.719674110412598,-1.51,-0.21,0.12,1.52
19.729366302490234,-1.31,0.04,0.11,1.31
19.75802516937256,-0.56,0.81,0.23,1.01
19.760765075683594,-0.32,1.21,0.32,1.29
19.76291799545288,-0.66,0.92,0.38,1.19
19.77579402923584,-0.87,0.44,0.38,1.04
19.779112100601196,-0.84,0.5,-0.01,0.97
19.789759159088135,-0.9,0.82,-0.2,1.23
19.79938817024231,-1.09,0.83,-0.51,1.46
19.809393167495728,-1.34,0.96,-0.51,1.72
19.82038402557373,-1.77,1.39,-0.18,2.25
19.829777240753174,-2.3,2.03,-0.26,3.07
19.85731601715088,-2.63,2.44,0.39,3.6
19.85944700241089,-3.01,2.68,0.59,4.07
19.861067295074463,-3.33,2.71,0.39,4.31
19.873887062072754,-3.55,2.53,-0.37,4.37
19.87945008277893,-3.3,2.43,-0.79,4.17
19.889883041381836,-3.17,2.59,-0.31,4.1
19.89976716041565,-3.96,3.32,0.6,5.2
19.91037917137146,-5.07,4.44,2.06,7.04
19.92029309272766,-6.08,5.35,3.13,8.68
19.93057608604431,-7.36,6.52,3.24,10.35
19.959125995635986,-9.22,7.54,2.49,12.16
19.962028980255127,-11.23,8.09,1.69,13.94
19.964198112487793,-15.03,9.33,0.45,17.69
19.973299980163574,-16.04,9.27,-0.03,18.52
19.980467081069946,-15.42,9.63,0.59,18.18
19.990784168243408,-14.28,11.74,1.96,18.58
20.00153112411499,-11.19,11.8,3.71,16.67
20.011425971984863,-4.6,12.48,3.47,13.74
20.021660089492798,2.33,13.79,2.84,14.27
20.031203269958496,4.02,10.54,3.64,11.85
20.05914616584778,-0.85,6.69,5.67,8.81
20.061854124069214,-7.04,3.06,6.39,9.98
20.063497066497803,-10.55,0.42,5.21,11.77
20.074825286865234,-12.63,-0.52,5.74,13.88
20.080889225006104,-8.97,-0.46,8.59,12.42
20.09140110015869,0.3,-0.19,2.32,2.34
20.10173797607422,9.09,-2.15,-3.82,10.09
20.111667156219482,6.76,-3.96,0.29,7.83
20.12179207801819,-4.37,-3.05,2.66,5.95
20.131872177124023,-9.56,-4.6,3.62,11.2
20.160120010375977,-12.2,-7.35,4.21,14.85
20.16328525543213,-13.77,-8.36,2.98,16.38
20.165664196014404,-10.91,-6.81,0.95,12.89
20.174801111221313,-5.5,-5.06,-0.01,7.47
20.183439254760742,-3.29,-3.9,-0.63,5.14
20.191802978515625,-2.4,-3.58,-0.68,4.36
20.20185422897339,-1.83,-3.85,-0.2,4.26
20.21204900741577,-1.85,-4.33,0.1,4.7
20.222142219543457,-2.0,-4.59,0.09,5.0
20.23250722885132,-2.04,-4.52,-0.02,4.95
20.262259006500244,-2.37,-4.17,-0.06,4.79
20.264925003051758,-2.89,-3.49,-0.15,4.53
20.266557216644287,-2.96,-2.76,0.0,4.04
20.27352809906006,-2.34,-2.16,0.57,3.23
20.28196096420288,-1.41,-1.49,1.25,2.4
20.292351245880127,-0.64,-0.4,1.52,1.69
20.302605152130127,0.23,1.11,1.46,1.84
20.312604188919067,1.35,2.89,1.11,3.37
20.32319211959839,2.72,4.95,0.82,5.7
20.33308696746826,4.13,7.36,0.61,8.46
20.363258123397827,5.54,9.69,1.06,11.21
20.36600923538208,6.63,11.25,2.06,13.21
20.36774730682373,7.05,12.18,3.07,14.4
20.37391710281372,7.28,12.87,3.71,15.24
20.383188247680664,7.89,12.47,3.89,15.26
20.393805027008057,8.94,10.78,3.54,14.44
20.40345311164856,9.46,7.31,2.02,12.12
20.41344404220581,10.07,3.79,-1.26,10.83
20.42376208305359,12.08,2.47,-4.36,13.07
20.433921098709106,15.54,2.36,-4.58,16.37
20.462796211242676,18.18,2.47,-5.17,19.06
20.465620040893555,18.86,1.46,-6.33,19.94
20.46812629699707,17.92,2.03,-6.02,19.01
20.473560094833374,16.54,2.29,-7.03,18.11
20.483116149902344,11.38,2.84,-9.42,15.04
20.49367618560791,-5.2,4.52,-9.36,11.62
20.503807067871094,-20.69,17.22,-9.37,28.5
20.513914108276367,-19.85,19.89,-6.66,28.87
20.524080276489258,-0.65,3.25,0.94,3.44
20.53437328338623,6.4,0.91,4.12,7.66
20.562900066375732,8.34,6.91,6.61,12.68
20.564960956573486,14.14,-0.89,3.92,14.7
20.56659698486328,20.51,-4.39,-2.64,21.14
20.573637008666992,11.6,-3.75,1.65,12.3
20.583721160888672,3.06,-3.14,4.76,6.47
20.594271183013916,-0.33,-0.99,2.31,2.53
20.604084014892578,-2.84,1.62,-4.91,5.89
20.614346027374268,-0.49,2.86,-6.73,7.32
20.624361038208008,4.58,1.59,-2.81,5.6
20.63514804840088,6.82,0.26,-2.39,7.23
20.664225101470947,5.72,-0.84,-2.03,6.12
20.666512966156006,2.61,-1.24,0.55,2.94
20.66819715499878,-0.44,-0.59,2.56,2.66
20.67417812347412,-1.95,0.02,3.14,3.69
20.684338092803955,-1.77,0.06,3.04,3.51
20.694605112075806,-0.83,-0.04,1.84,2.01
20.7049822807312,0.21,-0.02,0.02,0.21
20.71506404876709,1.15,0.02,-0.81,1.4
20.724915027618408,1.24,0.17,-0.94,1.56
20.73580026626587,0.48,0.36,-0.62,0.86
20.763716220855713,-0.69,0.41,0.25,0.84
20.76582622528076,-2.02,0.36,0.75,2.18
20.767476081848145,-2.78,0.24,0.59,2.85
20.774859189987183,-2.39,0.08,0.14,2.39
20.784974098205566,-1.27,0.17,-0.33,1.32
20.795634269714355,-0.53,0.22,-0.44,0.72
20.80601930618286,-0.36,0.13,-0.16,0.41
20.81574511528015,-1.0,-0.1,0.37,1.07
20.82560396194458,-1.38,-0.25,0.71,1.57
20.836034297943115,-1.18,-0.22,0.86,1.47
20.863409996032715,-0.77,0.5,0.86,1.25
20.86600613594055,-0.65,1.28,0.46,1.5
20.867613077163696,-0.9,0.98,0.33,1.37
20.87546396255493,-1.15,0.43,0.0,1.22
20.88601303100586,-0.99,0.47,-0.21,1.11
20.895915031433105,-1.09,0.56,-0.43,1.29
20.90611505508423,-1.35,0.96,-1.21,2.05
20.916326999664307,-1.31,1.09,-0.81,1.88
20.926574230194092,-1.6,1.46,-0.67,2.26
20.936774253845215,-2.1,1.96,-0.16,2.87
20.965973138809204,-2.58,2.3,0.32,3.47
20.969118118286133,-2.83,2.34,0.64,3.72
20.970818996429443,-3.09,2.44,0.79,4.01
20.97624111175537,-3.21,2.67,0.66,4.22
20.989397048950195,-3.38,2.84,0.47,4.43
20.99666714668274,-3.66,3.18,0.5,4.87
21.00667715072632,-4.49,3.78,1.0,5.95
21.017136096954346,-5.97,4.49,1.4,7.6
21.02715015411377,-7.45,5.25,1.0,9.16
21.03759217262268,-8.1,6.41,-0.21,10.33
21.066858291625977,-8.71,7.39,-1.41,11.5
21.07006311416626,-10.13,7.95,-2.41,13.1
21.072861194610596,-12.39,8.29,-2.37,15.09
21.07650899887085,-16.46,9.13,-1.76,18.9
21.086997032165527,-17.48,9.24,0.09,19.77
21.097084999084473,-15.67,9.42,2.05,18.39
21.107486248016357,-12.96,10.94,3.43,17.3
21.117967128753662,-6.0,12.63,3.78,14.48
21.128230094909668,3.33,13.37,0.86,13.8
21.138063192367554,5.14,12.57,5.4,14.61
21.167805194854736,-2.23,8.95,8.51,12.54
21.171345233917236,-8.57,4.97,7.17,12.22
21.173991203308105,-11.26,1.21,6.0,12.81
21.177385091781616,-12.55,-0.86,5.5,13.72
21.187475204467773,-10.7,-1.7,7.01,12.9
21.197391033172607,-4.44,0.45,6.92,8.23
21.207719087600708,3.98,0.58,-1.2,4.19
21.21836805343628,11.15,-2.86,-3.72,12.09
21.22800302505493,5.77,-2.87,0.85,6.5
21.238481998443604,-3.79,-1.64,3.36,5.32
21.267414093017578,-6.72,-4.39,5.75,9.87
21.269678115844727,-8.35,-7.78,5.45,12.64
21.271351099014282,-9.88,-9.54,2.84,14.02
21.2777841091156,-10.84,-7.25,0.51,13.05
21.28793430328369,-8.41,-4.64,-0.14,9.6
21.29834818840027,-5.47,-3.76,0.44,6.65
21.30853509902954,-4.3,-2.94,0.35,5.22
21.31913995742798,-3.74,-2.5,-0.12,4.5
21.328533172607422,-3.57,-2.94,-0.42,4.64
21.339126110076904,-3.67,-3.4,0.08,5.0
21.368791103363037,-3.15,-3.38,0.83,4.69
21.371766090393066,-2.0,-2.64,0.89,3.42
21.374147176742554,-0.91,-1.54,0.36,1.82
21.37804913520813,-0.16,-0.77,0.08,0.79
21.388538122177124,0.45,-0.44,0.18,0.65
21.39903211593628,1.28,-0.29,0.12,1.31
21.40893316268921,2.33,0.17,-0.07,2.33
21.41969919204712,3.01,1.08,-0.05,3.19
21.4292631149292,3.18,2.25,-0.04,3.89
21.43964910507202,3.28,3.56,-0.28,4.84
21.468842029571533,3.63,4.72,-0.4,5.96
21.471862077713013,4.2,5.72,-0.53,7.11
21.474431037902832,5.12,7.84,-0.85,9.4
21.478713035583496,6.69,10.57,-1.13,12.56
21.490345001220703,8.91,12.22,-1.6,15.2
21.499974250793457,11.51,11.79,-2.07,16.6
21.509570121765137,12.91,10.78,-1.0,16.84
21.519779205322266,12.64,8.76,0.25,15.38
21.529929161071777,12.51,5.64,-0.55,13.73
21.539993286132812,13.0,3.45,-3.65,13.93
21.56778311729431,13.66,1.92,-2.56,14.02
21.569724082946777,14.1,1.96,-1.6,14.32
21.571344137191772,15.33,2.75,-4.53,16.22
21.579602241516113,16.02,4.25,-5.46,17.45
21.590248107910156,14.47,2.5,-8.72,17.07
21.600231170654297,2.0,1.93,-9.02,9.43
21.61025309562683,-14.3,8.59,-6.11,17.76
21.620748043060303,-19.7,20.53,-5.35,28.95
21.630304098129272,-2.46,12.85,0.64,13.09
21.6410071849823,8.67,3.95,4.27,10.44
21.670794010162354,10.33,3.66,0.95,11.0
21.673538208007812,12.27,2.97,0.5,12.63
21.675769090652466,11.43,-4.0,3.19,12.52
21.69295310974121,7.91,-4.38,2.72,9.44
21.695399284362793,4.31,-2.82,2.79,5.85
21.705753087997437,1.39,-1.28,1.39,2.34
21.710604190826416,0.05,1.01,-0.55,1.15
21.72258424758911,1.22,1.85,-3.83,4.42
21.73095703125,4.26,1.68,-5.49,7.14
21.74109125137329,6.75,0.53,-3.84,7.78
21.768997192382812,6.28,-0.45,-1.81,6.55
21.77110004425049,3.48,-0.75,-0.1,3.56
21.772762298583984,0.75,-0.63,1.4,1.7
21.780758142471313,-1.05,-0.13,2.09,2.34
21.791417121887207,-1.61,0.26,2.4,2.9
21.80147910118103,-0.99,0.29,2.25,2.47
21.812563180923462,0.09,0.05,1.31,1.31
21.821798086166382,1.01,-0.08,0.02,1.01
21.831597089767456,1.48,-0.11,-0.52,1.57
21.84215807914734,1.31,-0.06,-0.4,1.37
21.871006965637207,0.48,0.3,0.01,0.56
21.873831272125244,-0.55,0.65,0.59,1.03
21.875574111938477,-1.51,0.71,1.01,1.95
21.89310908317566,-2.29,0.47,1.16,2.6
21.895162105560303,-2.66,0.11,0.71,2.75
21.9069881439209,-2.26,-0.06,0.0,2.26
21.912363052368164,-1.55,-0.04,-0.35,1.58
21.922571182250977,-1.47,-0.09,-0.17,1.48
21.932544231414795,-2.01,-0.45,0.55,2.13
21.942824125289917,-2.6,-0.66,0.81,2.8
21.971837043762207,-2.31,-0.22,0.98,2.51
21.974703073501587,-1.25,0.73,0.71,1.61
21.976938247680664,-0.35,1.07,0.4,1.19
21.99292802810669,-0.31,0.82,0.34,0.94
21.99580216407776,-0.64,0.54,0.69,1.08
22.00643301010132,-0.81,0.17,0.46,0.94
22.01264214515686,-1.09,0.15,0.11,1.1
22.02269697189331,-1.5,0.61,-0.48,1.68
22.032835006713867,-1.61,1.11,-0.67,2.06
22.043394088745117,-1.75,1.48,-0.46,2.33
22.07205629348755,-2.04,1.87,0.12,2.77
22.074576139450073,-2.52,2.19,0.71,3.41
22.076234102249146,-2.82,2.5,0.8,3.85
22.093006134033203,-2.96,2.69,0.47,4.02
22.09542226791382,-2.86,2.73,-0.33,3.96
22.10715103149414,-2.57,2.75,-1.09,3.91
22.113426208496094,-2.88,2.67,-0.89,4.02
22.12337613105774,-3.68,2.8,-0.17,4.62
22.133844137191772,-4.33,3.26,0.92,5.49
22.143846035003662,-5.13,3.8,1.69,6.6
22.1735782623291,-5.84,4.87,2.17,7.9
22.17606210708618,-6.72,6.03,2.33,9.32
22.177802085876465,-8.43,6.8,2.18,11.04
22.194097995758057,-10.87,7.97,1.86,13.6
22.19594430923462,-12.39,9.16,1.79,15.51
22.205559253692627,-13.76,10.29,2.05,17.3
22.21372413635254,-14.38,11.24,2.61,18.43
22.22406530380249,-13.81,10.71,3.21,17.76
22.234020233154297,-10.68,10.33,3.52,15.26
22.244237184524536,-3.85,11.86,2.41,12.7
22.272505283355713,2.33,12.43,2.26,12.84
22.274660110473633,1.2,9.07,4.86,10.35
22.276183128356934,-4.69,5.45,5.46,9.02
22.29265308380127,-9.67,2.54,4.99,11.17
22.294411182403564,-12.46,0.43,4.33,13.19
22.307215213775635,-12.99,-0.53,5.11,13.96
22.31428623199463,-7.93,0.25,7.28,10.76
22.32490110397339,-0.35,1.14,1.6,1.99
22.334743976593018,6.95,-0.65,-2.52,7.42
22.34512710571289,5.76,-1.88,0.87,6.12
22.3754460811615,-3.3,-0.97,2.42,4.2
22.37843418121338,-7.68,-2.79,3.49,8.88
22.380884170532227,-9.7,-5.26,3.63,11.61
22.39274024963379,-10.28,-6.0,1.81,12.03
22.39526128768921,-8.0,-5.02,0.04,9.44
22.407645225524902,-5.4,-3.75,-0.65,6.6
22.415086269378662,-4.31,-3.11,-0.85,5.38
22.4254732131958,-4.05,-3.18,-0.65,5.19
22.435330152511597,-3.78,-3.82,-0.02,5.37
22.44583010673523,-3.41,-4.59,0.5,5.73
22.474406242370605,-2.91,-4.94,0.75,5.78
22.477252960205078,-2.39,-4.81,0.49,5.39
22.479176998138428,-2.21,-4.24,-0.03,4.78
22.493256092071533,-2.18,-3.34,-0.33,4.0
22.495728015899658,-2.02,-2.63,-0.04,3.31
22.50750708580017,-1.79,-2.02,0.65,2.77
22.51575207710266,-1.58,-1.16,1.17,2.28
22.525830268859863,-1.19,0.14,1.13,1.64
22.536574125289917,-0.06,1.64,0.51,1.71
22.546339988708496,1.72,3.25,-0.23,3.68
22.574851036071777,3.77,4.42,-0.7,5.85
22.577596187591553,5.35,6.08,-0.48,8.11
22.57991600036621,6.24,7.37,-0.13,9.65
22.59185218811035,6.37,8.98,0.31,11.01
22.595815181732178,6.43,10.79,0.5,12.57
22.608126163482666,7.47,12.59,0.56,14.65
22.616958141326904,9.91,12.37,-0.01,15.85
22.626317977905273,12.89,11.18,-0.24,17.06
22.63680601119995,15.37,8.87,-1.1,17.77
22.646559238433838,17.14,6.21,-3.6,18.58
22.67368507385254,18.57,3.88,-6.4,20.02
22.675876140594482,18.64,2.5,-3.72,19.17
22.67756414413452,13.12,4.25,-0.21,13.79
22.69329023361206,10.71,4.45,-5.08,12.66
22.69648027420044,10.25,3.93,-3.19,11.43
22.70734214782715,9.99,1.32,-1.75,10.22
22.717103004455566,2.86,-0.45,-7.67,8.19
22.727237224578857,-9.93,10.89,-4.25,15.33
22.737876176834106,-11.49,20.39,0.89,23.42
22.74780511856079,0.12,13.66,3.82,14.18
22.774606227874756,10.26,4.28,5.7,12.49
22.77713108062744,16.91,-0.99,-5.12,17.69
22.778773307800293,15.8,-0.41,-9.42,18.39
22.79331922531128,5.29,-3.25,-0.09,6.2
22.796617031097412,1.54,-3.92,5.25,6.73
22.80780029296875,0.86,-2.72,4.26,5.12
22.817211151123047,-0.44,-0.2,-0.58,0.75
22.828294277191162,0.66,2.2,-3.53,4.21
22.83757495880127,3.35,2.66,-3.2,5.34
22.848157167434692,4.72,1.35,-1.97,5.28
22.87656021118164,4.26,-0.26,-1.29,4.45
22.879439115524292,2.91,-1.02,-0.58,3.13
22.881646156311035,1.63,-0.9,0.71,1.99
22.89231824874878,0.58,-0.46,1.67,1.82
22.897711277008057,-0.26,-0.08,2.17,2.18
22.907984256744385,-0.95,0.12,1.92,2.14
22.918432235717773,-1.52,0.14,1.3,2.0
22.92831325531006,-1.21,-0.01,0.63,1.36
22.938854217529297,0.05,-0.13,-0.21,0.25
22.948654174804688,1.05,0.24,-1.09,1.53
22.976881980895996,1.12,0.47,-1.13,1.65
22.979530096054077,0.49,0.48,-0.85,1.09
22.981160163879395,-0.5,0.37,0.0,0.62
22.992911100387573,-1.54,0.2,0.81,1.75
22.998310089111328,-2.08,0.07,1.03,2.32
23.008875131607056,-2.05,0.26,0.62,2.15
23.01930522918701,-1.58,0.3,0.36,1.64
23.02878212928772,-1.24,0.04,0.14,1.24
23.039225101470947,-0.98,0.04,0.16,0.99
23.049423217773438,-1.04,-0.03,0.14,1.04
23.078801155090332,-1.34,0.12,0.2,1.36
23.081608295440674,-1.47,0.2,0.45,1.55
23.084012985229492,-1.32,0.21,0.71,1.51
23.09203004837036,-1.19,0.26,0.75,1.43
23.09919810295105,-1.16,0.48,0.63,1.4
23.10922908782959,-0.96,0.75,0.4,1.28
23.119530200958252,-0.77,1.01,0.17,1.28
23.12958812713623,-1.06,0.91,0.4,1.45
23.140178203582764,-1.74,0.95,-0.22,1.99
23.149893283843994,-2.14,1.48,-0.46,2.64
23.178686141967773,-2.28,1.72,-0.48,2.89
23.18193006515503,-2.63,2.02,-0.14,3.31
23.18450617790222,-3.03,2.16,0.06,3.72
23.19225811958313,-3.13,2.33,0.01,3.9
23.19907522201538,-3.01,2.49,-0.04,3.9
23.2099711894989,-3.06,2.69,0.52,4.1
23.220555305480957,-3.87,3.01,1.56,5.14
23.230014085769653,-4.94,3.44,2.22,6.41
23.240385055541992,-5.76,4.21,2.01,7.41
23.250656127929688,-6.05,5.03,1.01,7.93
23.279993057250977,-5.97,5.9,-0.07,8.39
23.28261423110962,-6.86,7.14,-0.44,9.91
23.284261226654053,-9.22,8.07,-0.31,12.25
23.29138207435608,-11.37,8.57,0.21,14.23
23.30023217201233,-14.34,9.92,0.6,17.44
23.310551166534424,-15.27,11.01,1.8,18.91
23.32072401046753,-14.16,10.68,2.96,17.98
23.33115530014038,-14.72,10.74,2.91,18.45
23.341001987457275,-8.52,11.78,2.41,14.73
23.351651191711426,0.11,13.03,1.92,13.17
23.380568981170654,3.88,12.44,4.22,13.69
23.383528232574463,-0.4,8.79,7.23,11.38
23.385420083999634,-6.85,5.14,6.63,10.83
23.39214015007019,-10.71,2.07,5.62,12.27
23.400707244873047,-12.59,-0.01,4.35,13.32
23.41125202178955,-10.84,-0.68,5.94,12.37
23.421252250671387,-3.24,1.13,5.65,6.61
23.4314022064209,6.44,0.68,-2.81,7.05
23.441599130630493,10.35,-1.86,-2.0,10.7
23.451869010925293,0.53,-1.2,1.48,1.97
23.480919122695923,-7.32,-1.73,3.01,8.1
23.48375129699707,-10.88,-4.61,4.71,12.72
23.4862322807312,-12.52,-6.65,4.21,14.78
23.4914870262146,-11.13,-6.05,1.67,12.77
23.501805305480957,-6.95,-4.25,-0.22,8.14
23.511888027191162,-4.89,-3.16,-1.16,5.93
23.52220916748047,-4.82,-2.92,-1.45,5.81
23.53239107131958,-5.32,-3.13,-0.94,6.24
23.54245114326477,-5.28,-3.73,-0.08,6.46
23.552361965179443,-4.88,-4.11,0.36,6.39
23.581170082092285,-4.27,-4.04,0.0,5.87
23.583867073059082,-3.61,-3.44,-0.58,5.02
23.585512161254883,-2.93,-2.55,-0.73,3.95
23.591773986816406,-2.41,-1.78,-0.37,3.01
23.602023124694824,-2.05,-1.13,-0.02,2.34
23.61247205734253,-1.44,-0.21,-0.17,1.46
23.62254309654236,-0.39,0.97,-0.76,1.29
23.632336139678955,1.02,2.32,-1.42,2.9
23.642821073532104,2.59,3.66,-1.89,4.86
23.653423309326172,4.01,4.99,-2.23,6.77
23.682554244995117,5.16,6.33,-2.15,8.44
23.685399055480957,5.9,7.92,-2.04,10.08
23.68813419342041,6.62,9.96,-1.67,12.07
23.693405151367188,7.48,12.41,-0.43,14.49
23.707632064819336,9.06,14.34,1.76,17.05
23.713760137557983,12.6,14.07,3.97,19.29
23.723721027374268,17.26,12.12,4.18,21.5
23.733103275299072,18.04,8.1,2.33,19.91
23.74339199066162,15.28,4.86,-1.41,16.09
23.75389313697815,12.77,3.35,-1.62,13.3
23.782313108444214,11.77,3.43,0.35,12.26
23.784480094909668,12.9,4.11,-0.88,13.56
23.786185264587402,14.25,1.92,-2.38,14.57
23.792869091033936,16.2,-0.61,-3.32,16.54
23.802953243255615,18.61,1.6,-5.62,19.5
23.813833236694336,15.18,3.34,-7.38,17.2
23.823511123657227,2.33,3.47,-4.52,6.15
23.83364200592041,-15.58,6.1,-2.72,16.95
23.84516429901123,-26.66,18.22,-8.85,33.48
23.854416131973267,-11.05,14.52,-3.74,18.62
23.882808208465576,7.01,2.59,2.59,7.9
23.88554096221924,11.2,0.55,2.18,11.42
23.887246131896973,13.93,2.72,2.16,14.35
23.89350414276123,15.03,-2.31,6.02,16.35
23.90745210647583,11.64,-3.88,1.68,12.38
23.913843154907227,4.77,-0.62,1.69,5.09
23.924087047576904,-0.86,-1.27,5.01,5.23
23.93437910079956,-3.45,0.23,1.8,3.89
23.944693088531494,-3.29,1.41,-5.13,6.25
23.954952239990234,0.98,1.53,-7.43,7.64
23.983848094940186,6.39,0.37,-3.94,7.51
23.986637115478516,8.68,-0.26,-2.5,9.03
23.988301277160645,7.45,-0.51,-2.36,7.83
23.99405312538147,3.93,-0.71,-0.37,4.01
24.007707118988037,0.42,-0.4,1.69,1.78
24.014718055725098,-1.6,0.0,2.91,3.32
24.02474308013916,-2.06,0.14,3.21,3.81
24.034948110580444,-1.52,0.34,2.2,2.69
24.045262098312378,-0.18,0.34,0.41,0.56
24.055567264556885,1.18,0.12,-0.73,1.39
24.085910081863403,1.8,0.02,-0.96,2.04
24.089121103286743,1.49,0.21,-0.59,1.61
24.091921091079712,0.41,0.43,0.2,0.62
24.094768047332764,-0.99,0.58,0.71,1.34
24.104360103607178,-2.0,0.56,1.1,2.35
24.11504030227661,-2.32,0.34,1.14,2.6
24.12574005126953,-2.07,0.05,0.81,2.22
24.135404109954834,-1.37,0.06,0.18,1.38
24.145554065704346,-0.6,0.06,-0.17,0.62
24.155861139297485,-0.65,0.15,-0.3,0.73
24.184171199798584,-1.29,0.14,0.18,1.31
24.186009168624878,-1.93,-0.22,0.34,1.97
24.187121152877808,-1.89,-0.45,0.07,1.94
24.19541597366333,-0.98,-0.07,-0.09,0.98
24.207982063293457,-0.2,0.59,0.23,0.66
24.215705156326294,-0.14,1.18,0.18,1.2
24.226344108581543,-0.67,1.15,0.34,1.37
24.23586130142212,-1.83,0.91,0.15,2.04
24.245913982391357,-2.56,0.92,-0.01,2.72
24.256803035736084,-2.4,1.03,-0.12,2.61
24.284871101379395,-2.21,1.41,-0.18,2.62
24.28809928894043,-2.51,2.17,0.14,3.32
24.289765119552612,-3.15,2.9,0.56,4.31
24.29625415802002,-3.6,2.99,0.68,4.72
24.30690622329712,-3.53,2.73,0.65,4.5
24.31660008430481,-3.0,2.51,0.39,3.93
24.32639217376709,-2.82,2.73,0.26,3.93
24.337244033813477,-3.52,3.28,0.75,4.86
24.34709596633911,-4.74,4.04,1.21,6.34
24.35730814933777,-5.67,4.73,1.57,7.54
24.385338306427002,-6.28,5.76,1.74,8.69
24.387502193450928,-7.19,7.12,2.26,10.36
24.38918709754944,-9.69,8.15,2.45,12.89
24.396448135375977,-12.22,8.86,2.35,15.27
24.406635284423828,-14.44,9.74,2.26,17.56
24.417088985443115,-15.55,10.16,2.36,18.72
24.427205085754395,-15.91,10.15,2.65,19.05
24.437751293182373,-13.63,10.43,3.36,17.48
24.447375297546387,-7.82,10.9,3.78,13.93
24.45775818824768,-0.13,12.76,2.45,12.99
24.486082077026367,4.38,12.07,3.68,13.35
24.48874807357788,1.35,8.38,5.99,10.38
24.490435123443604,-4.77,4.75,5.74,8.84
24.497034072875977,-9.44,2.15,4.53,10.68
24.507365226745605,-12.45,0.53,3.9,13.05
24.517336130142212,-13.3,-0.01,6.72,14.9
24.527834177017212,-7.11,0.83,8.32,10.97
24.538203239440918,2.18,1.86,0.62,2.93
24.54781413078308,10.52,-1.42,-3.05,11.04
24.558380126953125,8.22,-3.79,0.16,9.05
24.5871901512146,-2.65,-2.45,2.18,4.21
24.58992910385132,-7.66,-3.55,3.32,9.07
24.59176206588745,-10.02,-6.36,2.58,12.14
24.597328186035156,-11.82,-7.65,0.72,14.09
24.607936143875122,-11.8,-5.83,-0.51,13.17
24.618319034576416,-7.61,-4.26,-0.21,8.72
24.628159046173096,-4.57,-3.41,0.25,5.7
24.638895988464355,-2.95,-3.21,0.26,4.36
24.648406982421875,-2.06,-3.82,0.14,4.34
24.65885305404663,-2.57,-4.47,0.14,5.15
24.687633991241455,-3.3,-4.8,0.43,5.84
24.690598011016846,-3.56,-4.76,0.57,5.97
24.693002223968506,-3.65,-4.09,0.24,5.48
24.69798707962036,-3.62,-2.91,-0.11,4.64
24.708311080932617,-2.99,-1.88,0.13,3.53
24.718870162963867,-1.9,-1.2,0.87,2.4
24.728726148605347,-1.11,-0.49,1.34,1.8
24.739663124084473,-0.64,0.73,1.09,1.45
24.74914813041687,0.1,2.31,0.54,2.37
24.75961399078369,1.35,4.32,-0.14,4.52
24.78728199005127,3.14,6.19,-0.72,6.97
24.79000997543335,4.97,7.8,-0.9,9.29
24.79188823699951,6.43,9.31,-0.44,11.32
24.798806190490723,7.25,11.04,0.5,13.21
24.81021499633789,8.18,12.89,1.42,15.33
24.82023811340332,10.31,13.81,1.84,17.33
24.830087184906006,12.43,12.64,2.14,17.85
24.839490175247192,12.63,9.87,2.68,16.25
24.849720001220703,10.63,6.04,2.76,12.53
24.861005306243896,8.31,3.2,0.74,8.93
24.88773012161255,7.75,3.04,-2.41,8.66
24.889595985412598,11.52,3.08,-1.94,12.08
24.891229152679443,15.66,2.42,-1.98,15.96
24.899497985839844,17.55,0.94,-3.51,17.92
24.90976309776306,19.47,-0.46,-5.32,20.18
24.92033100128174,19.76,1.49,-6.58,20.87
24.93028211593628,13.97,3.87,-5.43,15.47
24.94029426574707,5.82,5.71,-7.89,11.34
24.950304985046387,-9.74,6.79,-9.59,15.26
24.960885047912598,-27.4,17.34,-7.93,33.38
24.99039125442505,-16.73,13.39,-3.72,21.74
24.99311923980713,6.33,-0.72,1.63,6.57
24.995273113250732,9.91,-3.11,2.13,10.6
25.011474132537842,10.56,-1.09,-1.29,10.69
25.013947010040283,10.43,3.64,6.62,12.87
25.025246143341064,12.74,1.56,11.94,17.53
25.030713081359863,17.36,-1.46,-0.21,17.42
25.041154146194458,8.34,-0.5,-1.52,8.49
25.05152702331543,-2.49,0.71,-2.08,3.32
25.061812162399292,-4.2,0.63,-3.27,5.36
25.090914249420166,-1.1,0.74,-3.66,3.89
25.093276023864746,4.51,0.24,-2.5,5.16
25.094922065734863,7.56,0.21,-2.03,7.83
25.11188507080078,6.39,-0.14,-1.52,6.56
25.1143741607666,2.62,-0.41,0.82,2.77
25.12437105178833,-0.55,-0.38,2.7,2.78
25.131394147872925,-2.25,-0.17,3.12,3.85
25.14140796661377,-2.1,0.22,2.35,3.15
25.151393175125122,-0.78,0.49,0.68,1.14
25.162079095840454,0.54,0.34,-0.52,0.82
25.195747137069702,1.3,0.07,-0.62,1.44
25.197705268859863,1.31,-0.03,-0.2,1.32
25.198747158050537,0.49,0.05,0.34,0.59
25.209440231323242,-0.72,0.26,0.92,1.19
25.21121311187744,-1.74,0.41,1.01,2.05
25.225759029388428,-2.18,0.22,0.77,2.32
25.232083082199097,-1.85,-0.08,0.24,1.86
25.242135047912598,-1.24,-0.1,-0.25,1.26
25.252192974090576,-0.34,0.15,-0.74,0.82
25.262245178222656,0.13,0.16,-0.72,0.74
25.29124927520752,-0.29,0.17,-0.23,0.4
25.293701171875,-1.14,0.03,0.29,1.17
25.29535412788391,-1.25,-0.08,0.56,1.37
25.31178307533264,-0.87,-0.09,0.68,1.1
25.3139910697937,-0.52,0.11,0.32,0.62
25.324790000915527,-0.35,0.52,-0.02,0.62
25.332837104797363,-0.74,0.76,0.09,1.06
25.342632293701172,-1.52,0.76,0.05,1.7
25.352787017822266,-2.18,0.77,-0.12,2.31
25.3633131980896,-2.67,0.96,-0.05,2.83
25.391252040863037,-2.89,1.33,-0.15,3.18
25.394011974334717,-2.95,1.81,0.07,3.46
25.395698070526123,-2.94,2.12,0.35,3.64
25.410698175430298,-2.83,2.25,0.49,3.64
25.41303014755249,-2.85,2.26,0.52,3.67
25.4257550239563,-2.78,2.19,0.3,3.55
25.43326425552368,-2.67,2.28,0.14,3.51
25.443241119384766,-2.95,2.6,0.15,3.93
25.453323125839233,-3.46,3.15,0.43,4.69
25.46390414237976,-4.1,3.66,0.93,5.57
25.491858959197998,-4.91,4.26,0.89,6.56
25.49467897415161,-5.58,5.0,0.76,7.53
25.49677610397339,-6.24,5.72,0.15,8.46
25.511363983154297,-6.97,6.44,-0.4,9.49
25.513835191726685,-8.41,6.97,-0.07,10.92
25.526134967803955,-11.47,7.66,0.72,13.81
25.53379726409912,-14.64,8.95,1.39,17.21
25.54392409324646,-15.54,9.58,2.58,18.43
25.554230213165283,-14.3,9.91,3.34,17.71
25.564702033996582,-10.98,10.73,3.93,15.84
25.5938241481781,-5.15,11.36,3.54,12.96
25.596724033355713,1.18,13.29,1.99,13.48
25.598742961883545,2.23,12.97,5.13,14.12
25.610748291015625,-3.61,9.25,7.03,12.16
25.614013195037842,-8.9,5.22,5.9,11.88
25.62505006790161,-11.46,2.02,5.2,12.74
25.634348154067993,-12.99,0.21,5.03,13.93
25.64456796646118,-10.78,0.07,6.44,12.55
25.65537929534912,-4.28,2.21,5.72,7.47
25.66500425338745,3.53,1.0,-1.25,3.87
25.693411111831665,8.72,-2.02,-2.13,9.2
25.696097135543823,2.51,-1.95,1.59,3.55
25.69773817062378,-5.73,-1.63,3.45,6.88
25.711870193481445,-8.93,-4.45,4.69,11.02
25.714587211608887,-10.69,-7.41,3.76,13.53
25.7261221408844,-12.13,-7.39,1.56,14.28
25.735053062438965,-10.4,-5.0,-0.13,11.54
25.745392084121704,-6.55,-3.37,-0.42,7.37
25.755746126174927,-4.39,-2.73,-0.51,5.19
25.765661239624023,-3.23,-2.85,-0.55,4.34
25.796545028686523,-2.83,-3.56,-0.5,4.57
25.799360275268555,-3.2,-4.16,-0.21,5.25
25.80165195465088,-3.54,-4.27,0.12,5.54
25.809606075286865,-3.36,-3.82,-0.05,5.08
25.814840078353882,-2.88,-2.93,-0.44,4.13
25.82555913925171,-2.33,-2.11,-0.49,3.18
25.83551025390625,-1.81,-1.69,-0.12,2.47
25.84612011909485,-1.44,-1.38,0.3,2.01
25.856532096862793,-1.07,-0.64,0.13,1.25
25.866462230682373,-0.24,0.66,-0.61,0.93
25.89463520050049,1.04,2.22,-1.51,2.87
25.89716100692749,2.54,4.13,-2.28,5.35
25.89878010749817,3.93,5.65,-2.4,7.28
25.912952184677124,4.81,7.13,-2.15,8.86
25.91578197479248,5.47,8.99,-2.2,10.75
25.926443099975586,6.4,11.15,-1.61,12.95
25.937047958374023,8.09,13.02,-0.46,15.33
25.947448253631592,11.01,13.47,0.71,17.41
25.957439184188843,14.07,12.39,1.23,18.78
25.96643829345703,16.69,10.21,1.29,19.6
25.991445064544678,15.21,6.29,0.21,16.46
25.993657112121582,13.09,3.46,-1.28,13.59
25.995907306671143,12.03,2.45,-0.72,12.29
26.012718200683594,12.02,4.11,-1.36,12.77
26.016386032104492,11.96,5.45,-0.98,13.17
26.027151107788086,13.29,2.16,-2.33,13.66
26.036867141723633,14.93,1.87,-0.94,15.07
26.047014236450195,15.72,2.28,-3.16,16.19
26.05756902694702,5.58,2.52,-6.18,8.69
26.067963123321533,-9.38,14.12,-4.84,17.62
26.095667123794556,-15.05,25.2,-5.05,29.78
26.097877979278564,-6.73,11.79,-1.69,13.68
26.09952402114868,5.7,-1.51,4.42,7.36
26.10970401763916,10.87,-2.71,0.58,11.21
26.11663007736206,12.33,-3.91,-1.05,12.97
26.127621173858643,11.76,-4.94,0.69,12.77
26.137566089630127,9.35,-2.89,2.68,10.14
26.14758610725403,5.81,-1.47,1.52,6.18
26.157491207122803,1.35,0.85,-2.36,2.84
26.1680850982666,-1.12,2.27,-3.33,4.18
26.198419094085693,0.13,2.27,-1.93,2.98
26.200420141220093,3.57,0.89,-1.13,3.84
26.201842308044434,6.02,-0.48,-1.39,6.19
26.209602117538452,4.96,-1.03,-1.16,5.19
26.217191219329834,2.21,-0.82,0.29,2.37
26.227986097335815,0.39,-0.28,1.67,1.73
26.238124132156372,-0.35,0.11,2.26,2.28
26.248205184936523,-0.43,0.29,1.96,2.02
26.25806427001953,-0.1,0.26,0.94,0.98
26.268651962280273,0.51,0.13,-0.11,0.53
26.296854972839355,1.13,0.07,-0.7,1.33
26.29994821548462,1.32,0.08,-0.89,1.59
26.301961183547974,0.97,0.08,-0.43,1.06
26.310543060302734,0.26,0.03,0.56,0.61
26.318289279937744,-0.57,0.18,1.01,1.17
26.32863211631775,-1.34,0.29,1.11,1.76
26.339418172836304,-1.84,0.2,0.91,2.06
26.34910011291504,-1.91,0.1,0.37,1.94
26.359121084213257,-1.61,0.01,-0.29,1.63
26.369338989257812,-0.83,0.16,-0.88,1.22
26.400390148162842,-0.3,0.12,-0.67,0.74
26.40322518348694,-0.95,-0.07,0.0,0.95
26.40564727783203,-1.73,-0.2,0.63,1.85
26.409720182418823,-1.97,-0.19,1.05,2.24
26.425764083862305,-1.59,0.33,0.97,1.89
26.429012298583984,-1.03,0.84,0.82,1.56
26.441606044769287,-0.85,1.08,0.61,1.5
26.449378967285156,-1.17,1.04,0.25,1.58
26.459318161010742,-1.74,1.06,0.17,2.04
26.470031261444092,-2.06,1.2,0.35,2.4
26.497246265411377,-2.2,1.03,-0.25,2.44
26.4999361038208,-2.24,1.33,-0.38,2.63
26.50158715248108,-2.42,1.74,-0.63,3.04
26.50963020324707,-2.58,2.19,-0.06,3.38
26.519508123397827,-3.0,2.65,0.27,4.01
26.529664039611816,-3.43,3.02,0.4,4.58
26.540081024169922,-3.52,3.04,0.22,4.65
26.54985213279724,-3.2,2.92,-0.04,4.33
26.560192108154297,-2.84,2.74,0.03,3.94
26.57059907913208,-3.13,2.7,0.31,4.14
26.599384307861328,-3.98,2.87,0.92,4.99
26.6022891998291,-4.59,3.42,1.44,5.9
26.60413122177124,-5.07,4.45,2.1,7.06
26.610301971435547,-6.02,5.56,2.26,8.5
26.62000322341919,-7.54,6.09,2.15,9.92
26.630327224731445,-9.64,7.1,1.95,12.13
26.640393257141113,-12.27,8.53,1.73,15.04
26.651616096496582,-14.02,9.14,1.71,16.82
26.66117525100708,-15.13,9.93,2.15,18.22
26.671654224395752,-15.12,10.19,2.14,18.35
26.69978904724121,-12.11,10.41,2.22,16.12
26.70260524749756,-5.83,11.36,1.41,12.84
26.704936981201172,0.67,11.37,1.11,11.44
26.7104229927063,0.72,10.07,3.79,10.78
26.721063137054443,-4.85,7.52,5.54,10.52
26.730923175811768,-9.7,4.3,5.28,11.85
26.741048097610474,-12.32,1.89,4.93,13.4
26.751455307006836,-12.76,0.58,4.95,13.69
26.761476039886475,-8.94,0.58,7.02,11.38
26.771989107131958,-3.1,2.35,5.2,6.49
26.80042600631714,4.74,1.05,-1.74,5.15
26.80288314819336,9.09,-1.9,-0.67,9.31
26.804583072662354,1.5,-2.11,2.19,3.39
26.811016082763672,-6.22,-2.25,2.88,7.21
26.82197618484497,-9.27,-4.62,3.27,10.86
26.83154296875,-10.99,-6.14,1.83,12.72
26.84162425994873,-10.4,-5.45,-0.25,11.74
26.85215711593628,-6.83,-4.07,-0.97,8.0
26.86182403564453,-4.54,-3.19,-0.83,5.61
26.872525215148926,-3.71,-3.11,-0.6,4.87
26.90423822402954,-3.43,-3.56,-0.43,4.96
26.907005310058594,-3.5,-4.2,-0.15,5.46
26.90873098373413,-3.63,-4.69,0.23,5.93
26.911339282989502,-3.38,-4.83,0.29,5.9
26.921325206756592,-2.95,-4.63,0.0,5.48
26.93184208869934,-2.6,-3.97,-0.3,4.75
26.941829204559326,-2.27,-3.28,-0.28,3.99
26.952222108840942,-1.93,-2.67,0.09,3.29
26.962375164031982,-1.62,-1.75,0.5,2.43
26.972694158554077,-1.16,-0.25,0.63,1.34
26.999470233917236,-0.17,1.52,0.54,1.62
27.001497268676758,1.35,3.18,0.18,3.45
27.002734184265137,3.09,5.03,-0.07,5.9
27.01252508163452,4.68,6.42,-0.08,7.94
27.022221088409424,6.01,8.44,0.65,10.38
27.03278613090515,7.26,10.19,1.54,12.6
27.043793201446533,8.59,12.15,2.56,15.09
27.054006099700928,10.21,14.11,3.29,17.72
27.063789129257202,12.17,14.05,3.16,18.85
27.073931217193604,13.42,11.41,3.05,17.87
27.10077428817749,12.42,6.91,3.09,14.54
27.102700233459473,10.52,3.95,0.09,11.23
27.104220151901245,10.15,3.01,-3.32,11.09
27.112656116485596,13.42,3.44,-3.04,14.18
27.12285327911377,16.09,4.46,-3.9,17.14
27.13365125656128,18.66,3.28,-5.62,19.76
27.14353609085083,20.41,3.21,-5.17,21.29
27.153685092926025,15.52,2.58,-9.27,18.26
27.163584232330322,-1.88,7.3,-10.19,12.67
27.17445707321167,-15.66,21.06,-6.38,27.0
27.20562505722046,-11.84,17.88,-2.58,21.59
27.207707166671753,3.47,0.72,1.86,4.0
27.20959210395813,7.66,-3.57,2.23,8.74
27.213020086288452,7.81,-1.34,0.25,7.92
27.223042011260986,10.34,-1.4,5.22,11.66
27.2340030670166,13.02,-3.58,6.26,14.88
27.243932247161865,12.26,-1.55,0.57,12.37
27.25391721725464,4.81,1.18,-0.02,4.95
27.264328956604004,-0.56,2.09,-0.71,2.27
27.274603128433228,-2.81,2.34,-3.18,4.84
27.302247047424316,-1.66,1.47,-4.99,5.46
27.30418610572815,2.95,0.23,-4.3,5.21
27.305859088897705,5.81,-0.63,-2.13,6.22
27.31401824951172,5.53,-0.78,-0.84,5.64
27.32596516609192,3.36,-0.76,0.61,3.49
27.334688186645508,0.76,-0.48,2.04,2.22
27.344675064086914,-0.8,-0.16,2.79,2.9
27.35522222518921,-1.2,-0.1,2.8,3.04
27.364659309387207,-0.95,0.01,1.9,2.12
27.37523126602173,-0.35,0.17,0.26,0.46
27.404754161834717,0.49,0.22,-0.9,1.04
27.407855987548828,1.31,0.11,-0.96,1.62
27.409828186035156,1.41,0.05,-0.46,1.48
27.41422128677368,0.52,0.16,0.23,0.59
27.424638271331787,-0.86,0.23,0.92,1.28
27.435276985168457,-1.96,0.22,1.21,2.31
27.445582151412964,-2.28,0.13,1.08,2.52
27.455974102020264,-1.82,0.12,0.5,1.89
27.465622186660767,-1.15,0.16,-0.02,1.16
27.476198196411133,-0.55,0.28,-0.29,0.68
27.50379228591919,-0.42,0.26,-0.16,0.51
27.507112979888916,-0.91,0.17,0.01,0.92
27.508814096450806,-1.58,0.12,0.27,1.6
27.514904022216797,-1.71,0.15,0.51,1.79
27.525434017181396,-1.27,0.12,0.41,1.33
27.535737991333008,-0.49,0.25,0.45,0.71
27.545956134796143,-0.03,0.72,0.65,0.97
27.556316137313843,-0.39,1.35,0.68,1.56
27.565898180007935,-0.92,1.61,0.06,1.85
27.576351165771484,-1.55,1.68,-0.55,2.35
27.60506820678711,-2.23,1.45,-1.18,2.9
27.60813617706299,-2.38,1.55,-1.38,3.15
27.610700130462646,-2.55,1.55,-1.1,3.18
27.61577606201172,-2.78,1.84,-0.57,3.38
27.626002311706543,-3.1,2.3,0.26,3.86
27.63645315170288,-3.5,2.71,0.89,4.51
27.646494150161743,-3.71,2.72,1.31,4.78
27.656743049621582,-3.56,2.76,1.29,4.68
27.666895151138306,-3.43,3.01,1.53,4.81
27.67713212966919,-3.95,3.24,1.85,5.43
27.706332206726074,-4.98,3.76,1.87,6.51
27.709595203399658,-5.37,4.82,1.72,7.41
27.71156930923462,-5.74,6.13,1.35,8.5
27.716437101364136,-6.95,7.04,1.18,9.96
27.72640109062195,-9.52,7.89,0.9,12.39
27.736964225769043,-12.63,8.68,0.67,15.33
27.74693012237549,-14.51,9.27,0.74,17.23
27.7576642036438,-15.8,9.36,1.22,18.4
27.767112255096436,-16.23,9.12,1.53,18.67
27.7777361869812,-14.18,9.27,1.64,17.02
27.806406021118164,-8.75,11.05,2.17,14.26
27.809592247009277,-1.46,12.71,2.7,13.07
27.81214213371277,2.23,11.35,3.13,11.98
27.816835165023804,-1.47,8.29,4.8,9.69
27.827524185180664,-7.09,5.25,4.84,10.06
27.83744525909424,-10.47,2.99,4.18,11.66
27.847833156585693,-10.91,1.38,4.36,11.82
27.858110189437866,-7.54,0.43,7.02,10.31
27.868021965026855,-1.17,1.58,3.6,4.1
27.878247261047363,6.8,-0.5,-2.22,7.17
27.908061027526855,5.32,-2.84,0.15,6.03
27.910540103912354,-4.71,-2.42,2.13,5.7
27.91217613220215,-10.49,-4.22,3.2,11.75
27.93014097213745,-13.34,-6.18,2.92,14.98
27.932634115219116,-13.55,-6.07,0.98,14.87
27.94273328781128,-9.32,-4.35,-0.83,10.31
27.94835114479065,-5.53,-3.19,-1.64,6.59
27.95907497406006,-4.46,-2.98,-1.75,5.64
27.968297004699707,-4.75,-3.31,-1.13,5.89
27.978939056396484,-4.72,-4.04,-0.45,6.22
28.007853031158447,-4.43,-4.45,-0.2,6.28
28.010704040527344,-4.24,-4.3,-0.38,6.05
28.012684106826782,-4.12,-3.75,-0.9,5.64
28.029746055603027,-3.84,-2.98,-1.08,4.97
28.03217601776123,-3.27,-2.41,-0.75,4.13
28.042829036712646,-2.62,-2.09,-0.28,3.36
28.048655033111572,-1.9,-1.45,-0.35,2.41
28.05902624130249,-1.14,-0.46,-0.84,1.48
28.069311141967773,-0.19,0.82,-1.29,1.54
28.079766273498535,1.16,2.52,-1.83,3.32
28.10671615600586,3.05,4.54,-2.62,6.06
28.10940909385681,5.1,6.49,-2.47,8.61
28.11104726791382,6.74,8.27,-2.03,10.86
28.13009810447693,8.11,10.37,-1.8,13.28
28.132485151290894,9.42,12.33,-0.97,15.54
28.143468141555786,11.15,13.45,0.32,17.47
28.150480270385742,12.59,13.16,1.62,18.28
28.159844160079956,12.93,11.61,1.63,17.45
28.16937828063965,12.25,9.39,1.48,15.5
28.180691242218018,11.65,6.45,1.46,13.39
28.204095125198364,11.67,3.91,0.55,12.31
28.20617413520813,13.81,2.42,-0.2,14.02
28.20968198776245,16.19,2.01,-0.41,16.31
28.21987009048462,17.08,1.65,-2.13,17.29
28.230244159698486,18.22,1.72,-4.36,18.81
28.240796089172363,16.41,4.56,-4.11,17.52
28.250405311584473,10.95,3.25,-4.37,12.22
28.260473251342773,-1.64,2.38,-6.52,7.13
28.27058696746826,-18.62,10.98,-1.73,21.68
28.28105401992798,-21.98,21.16,0.49,30.51
28.30946707725525,-1.77,10.01,2.61,10.49
28.312392234802246,9.26,1.44,3.44,9.98
28.314032077789307,13.36,3.48,1.46,13.88
28.3300142288208,17.67,1.53,2.48,17.9
28.332467079162598,18.23,-5.22,-0.24,18.96
28.342995166778564,9.32,-2.99,1.45,9.89
28.35056710243225,3.34,-2.81,3.12,5.36
28.360831260681152,-0.26,-0.95,2.69,2.86
28.370983123779297,-1.83,1.02,0.62,2.18
28.381389141082764,-1.14,2.04,-2.05,3.1
28.41004228591919,1.7,1.9,-3.58,4.39
28.412727117538452,4.27,0.87,-3.99,5.9
28.41431999206543,5.01,0.11,-4.24,6.56
28.430710077285767,4.28,-0.15,-2.57,4.99
28.432605266571045,2.85,-0.5,0.13,2.89
28.443838119506836,1.13,-0.42,1.74,2.11
28.451226234436035,-0.51,-0.18,2.33,2.39
28.461365222930908,-1.6,-0.05,2.32,2.81
28.47142219543457,-1.46,-0.01,1.89,2.38
28.482030153274536,-0.35,-0.08,1.27,1.31
28.510197162628174,0.7,-0.13,0.34,0.78
28.512948989868164,1.08,-0.05,-0.61,1.24
28.515076160430908,0.77,0.29,-0.55,0.98
28.531620025634766,-0.15,0.61,0.32,0.7
28.534244060516357,-1.62,0.5,0.92,1.92
28.543938159942627,-2.87,0.01,1.13,3.08
28.551926136016846,-3.24,-0.27,0.94,3.38
28.562052249908447,-2.29,-0.36,0.44,2.35
28.572144985198975,-1.26,-0.05,-0.21,1.27
28.58222723007202,-1.11,0.07,-0.07,1.11
28.610363960266113,-1.88,0.08,0.64,1.98
28.61288809776306,-2.64,0.25,0.98,2.82
28.614476203918457,-2.31,0.51,0.9,2.53
28.628997087478638,-1.19,0.51,0.94,1.59
28.63212013244629,-0.51,0.48,0.92,1.15
28.643778085708618,-0.43,0.67,0.94,1.23
28.65276002883911,-0.61,1.32,0.59,1.56
28.662901163101196,-0.98,1.51,0.31,1.82
28.67347526550293,-1.72,1.09,-0.11,2.03
28.68313503265381,-1.93,1.19,-1.31,2.61
28.711602210998535,-1.97,1.82,-1.2,2.93
28.714445114135742,-2.32,2.25,-0.5,3.27
28.716783046722412,-3.06,2.89,0.04,4.2
28.729276180267334,-3.72,3.27,0.21,4.95
28.73274517059326,-3.79,3.14,-0.16,4.92
28.743968963623047,-2.95,2.93,-0.58,4.19
28.753104209899902,-2.69,3.13,-0.45,4.15
28.76373314857483,-3.96,3.58,0.07,5.33
28.773783206939697,-5.36,4.17,0.84,6.84
28.783701181411743,-6.16,4.97,1.5,8.05
28.812610149383545,-6.93,6.21,1.84,9.48
28.815943241119385,-8.33,7.7,2.36,11.58
28.81839609146118,-11.09,8.61,2.39,14.24
28.82909917831421,-13.14,9.36,2.4,16.31
28.8333420753479,-15.04,10.79,2.36,18.65
28.84449529647827,-15.64,11.4,3.44,19.65
28.85401725769043,-14.71,11.17,4.5,19.01
28.86386203765869,-10.63,10.52,4.33,15.56
28.874210119247437,-3.89,11.53,2.86,12.5
28.884346961975098,2.34,12.61,2.96,13.16
28.91218328475952,1.9,9.67,6.0,11.53
28.91508913040161,-3.64,5.78,6.69,9.56
28.916747093200684,-8.85,2.97,5.95,11.07
28.931523084640503,-11.75,0.74,5.22,12.87
28.933963298797607,-13.25,-0.68,6.83,14.92
28.944587230682373,-8.32,0.46,9.41,12.56
28.954776287078857,0.16,1.5,3.08,3.42
28.964394092559814,8.54,-0.81,-3.56,9.28
28.97500228881836,8.55,-2.39,0.35,8.88
28.98499608039856,-2.11,-1.4,2.93,3.87
29.01437520980835,-7.55,-2.88,4.01,9.02
29.017181158065796,-9.69,-5.9,4.01,12.03
29.019296169281006,-11.02,-7.1,1.98,13.25
29.029598236083984,-9.8,-5.84,-0.36,11.41
29.03481101989746,-5.79,-4.18,-1.06,7.21
29.045236110687256,-3.38,-3.3,-1.01,4.83
29.054943084716797,-2.68,-3.26,-0.75,4.28
29.06528902053833,-2.76,-3.83,-0.14,4.72
29.075684070587158,-2.9,-4.58,0.4,5.43
29.0854971408844,-2.78,-5.13,0.69,5.87
29.11429715156555,-2.57,-5.16,0.76,5.81
29.116930961608887,-2.57,-4.63,0.42,5.31
29.119089126586914,-2.94,-3.62,0.02,4.66
29.12830924987793,-3.37,-2.67,0.08,4.3
29.134934186935425,-3.25,-1.93,0.74,3.85
29.14542317390442,-2.59,-1.16,1.5,3.2
29.15566396713257,-1.71,0.0,1.67,2.39
29.165711164474487,-0.61,1.54,1.16,2.02
29.17662811279297,0.68,3.89,0.51,3.98
29.186597108840942,2.44,6.53,-0.38,6.98
29.2104229927063,4.47,8.78,-0.72,9.87
29.212578296661377,6.22,9.61,-0.67,11.46
29.215681076049805,7.64,10.29,-0.47,12.82
29.230133056640625,9.23,11.28,0.08,14.57
29.23621916770935,11.09,12.24,0.43,16.52
29.24639129638672,12.73,12.45,0.47,17.81
29.256088256835938,12.6,10.83,0.32,16.61
29.26639699935913,11.16,6.73,-0.24,13.03
29.276560306549072,10.54,3.68,-2.53,11.44
29.286782264709473,11.98,2.64,-3.69,12.81
29.314648151397705,15.37,3.32,-3.03,16.01
29.316630125045776,17.53,3.02,-3.68,18.16
29.31831121444702,18.72,1.4,-4.42,19.28
29.32781219482422,18.53,2.18,-4.24,19.13
29.33596706390381,17.37,3.69,-6.99,19.08
29.346764087677002,7.62,4.36,-7.71,11.68
29.35665512084961,-9.86,8.11,-6.0,14.1
29.36702299118042,-23.19,18.47,-5.7,30.18
29.377596139907837,-14.01,13.05,-2.11,19.26
29.38730001449585,5.34,0.6,3.28,6.29
29.41583514213562,9.86,0.92,3.33,10.44
29.418681144714355,12.5,3.76,4.62,13.84
29.42012929916382,17.42,-1.57,0.79,17.5
29.42789602279663,16.46,-2.13,-3.97,17.06
29.437071084976196,5.33,-1.3,0.06,5.48
29.447203159332275,0.47,-1.27,2.56,2.89
29.45732307434082,-1.69,-0.32,2.76,3.25
29.467575073242188,-1.96,1.03,-0.94,2.4
29.47807812690735,1.16,1.43,-4.58,4.93
29.487938165664673,4.68,1.07,-4.67,6.69
29.516914129257202,6.14,0.11,-2.69,6.7
29.519636154174805,4.97,-0.58,-0.56,5.03
29.521624088287354,2.39,-0.84,1.08,2.75
29.527979135513306,0.03,-0.62,1.85,1.95
29.5370512008667,-1.39,-0.11,1.89,2.34
29.547872066497803,-1.62,0.29,1.87,2.49
29.558133125305176,-0.9,0.22,1.66,1.9
29.567999124526978,-0.07,-0.01,0.68,0.68
29.578405141830444,0.47,-0.12,-0.59,0.76
29.58860731124878,0.76,-0.01,-0.74,1.06
29.61801314353943,0.35,0.29,-0.18,0.48
29.62014412879944,-0.62,0.57,0.36,0.91
29.621811151504517,-1.81,0.61,0.88,2.1
29.62827730178833,-2.74,0.37,1.31,3.05
29.63801407814026,-2.95,0.19,1.04,3.13
29.64862298965454,-2.33,0.29,0.53,2.4
29.65872621536255,-1.28,0.39,0.34,1.38
29.668556213378906,-1.02,0.18,0.35,1.09
29.6790189743042,-1.35,0.01,0.47,1.42
29.69006609916687,-1.74,-0.01,0.5,1.81
29.717847108840942,-1.53,0.12,0.65,1.66
29.720386028289795,-0.86,0.31,0.83,1.23
29.721988201141357,-0.13,1.1,0.52,1.22
29.728527069091797,-0.01,1.53,0.81,1.73
29.738994121551514,-0.6,1.1,-0.6,1.38
29.749011993408203,-1.18,1.3,-0.86,1.95
29.759157180786133,-1.99,1.13,-0.92,2.46
29.769495010375977,-2.26,1.27,-1.06,2.8
29.779375076293945,-2.26,1.28,-0.74,2.7
29.790608167648315,-2.57,1.63,-0.49,3.08
29.81937599182129,-2.77,2.18,0.27,3.53
29.822224140167236,-3.24,2.61,0.88,4.25
29.824990272521973,-3.88,2.75,0.76,4.81
29.82920503616333,-3.6,2.87,0.39,4.62
29.844069957733154,-2.95,3.04,0.33,4.24
29.849594116210938,-3.55,3.17,0.74,4.81
29.86005401611328,-4.84,3.55,1.32,6.14
29.869818210601807,-5.78,4.22,1.87,7.39
29.87984013557434,-6.59,5.12,1.98,8.57
29.890610218048096,-7.49,6.21,1.91,9.91
29.920642137527466,-9.06,7.14,1.63,11.64
29.92387628555298,-11.13,8.2,1.81,13.94
29.92662525177002,-13.95,9.62,1.79,17.03
29.929968118667603,-15.16,10.28,2.33,18.46
29.9395911693573,-15.36,10.66,2.99,18.93
29.95039415359497,-13.13,10.55,3.24,17.15
29.959989070892334,-7.59,10.74,3.51,13.61
29.97063398361206,-0.76,13.14,2.15,13.33
29.9804949760437,1.75,11.8,3.84,12.53
29.991034984588623,-1.69,7.76,5.69,9.76
30.020012140274048,-6.49,4.56,5.57,9.69
30.02278709411621,-9.63,2.36,4.69,10.96
30.024456024169922,-11.48,0.8,4.22,12.25
30.030524253845215,-10.96,0.49,6.51,12.75
30.04454207420349,-5.44,1.83,7.48,9.42
30.051282167434692,2.24,1.02,0.33,2.48
30.060912132263184,8.48,-1.37,-1.46,8.71
30.071182250976562,4.62,-2.55,1.66,5.53
30.081549167633057,-4.23,-2.02,2.71,5.41
30.091926097869873,-8.04,-3.87,3.45,9.56
30.121753215789795,-10.01,-6.03,2.69,11.99
30.12488317489624,-10.56,-6.34,0.69,12.33
30.127653121948242,-7.77,-5.08,-0.64,9.3
30.13091802597046,-4.77,-3.78,-0.9,6.15
30.1407732963562,-3.55,-3.11,-0.7,4.77
30.151854038238525,-3.18,-3.18,-0.23,4.5
30.161330223083496,-3.06,-3.84,0.29,4.91
30.171894073486328,-3.02,-4.53,0.49,5.46
30.182197093963623,-3.07,-4.85,0.56,5.76
30.19248914718628,-3.06,-4.61,0.47,5.55
30.220954179763794,-3.22,-3.99,0.24,5.13
30.223214149475098,-3.51,-3.04,0.01,4.64
30.224868297576904,-3.4,-2.24,0.14,4.07
30.23180913925171,-2.77,-1.71,0.66,3.32
30.24469804763794,-2.03,-1.08,1.04,2.52
30.252557277679443,-0.98,-0.07,0.71,1.21
30.262080192565918,0.38,1.38,-0.12,1.43
30.272403240203857,2.0,3.57,-0.93,4.19
30.282663106918335,4.2,5.41,-1.92,7.11
30.293047189712524,6.4,7.27,-1.99,9.88
30.322314262390137,8.03,8.31,-2.09,11.74
30.325275182724,8.95,9.47,-1.55,13.12
30.326996088027954,9.07,10.69,-0.55,14.03
